row_id,participant_id,participant_number,recording_file,part_number,block_number,trial_number,trial_number_global,trial_type,phase,phase_alternation_check,SOA_ms,SOA_type,noise_type,reaction_time_ms,response_detected,outcome,response_category,data_source,block_rendition_id,block_selection_status,block_evidence_score,trial_reconstruction_status,uncertainty_flags,reference_correction_status,reference_block_letter,reference_trial_number,reference_source_csv,original_trial_type,original_SOA_ms,original_noise_type,original_phase,label_corrections,response_detected_bool,condition,condition_code,phase_code,distance_cm,participant_rt_mean,participant_rt_sd,outlier_low_cutoff,outlier_high_cutoff,rt_outlier_prereg,exclude_participant_catch_fa_prereg,analysis_track
1,P03,3,P03_recording.wav,1,1,1,1,Audio-Tactile,Inhale,nan,1500.0,soa_1500ms,pink,1042.0,True,hit,Hit,observed,part1_wavblock1,reference_corrected_retained,99.984,wav_observed_reference_checked,nan,reference_checked_no_change,c,1,P03/Part1/P03_PPS_part1_1c.csv,Audio-Tactile,1500.0,pink,Inhale,nan,True,Viscereality,0.5,0.5,50.0,791.8523076923077,177.69559654993802,347.61331631746265,1236.0912990671527,False,False,preregistered_2p5sd
2,P03,3,P03_recording.wav,1,1,2,2,Audio-Tactile,Exhale,nan,300.0,soa_300ms,blue,759.0,True,hit,Hit,observed,part1_wavblock1,reference_corrected_retained,99.984,wav_observed_reference_checked,nan,reference_checked_no_change,c,2,P03/Part1/P03_PPS_part1_1c.csv,Audio-Tactile,300.0,blue,Exhale,nan,True,Viscereality,0.5,-0.5,100.0,791.8523076923077,177.69559654993802,347.61331631746265,1236.0912990671527,False,False,preregistered_2p5sd
3,P03,3,P03_recording.wav,1,1,3,3,Audio-Tactile,Inhale,nan,800.0,soa_800ms,pink,919.0,True,hit,Hit,observed,part1_wavblock1,reference_corrected_retained,99.984,wav_observed_reference_checked,nan,reference_checked_no_change,c,3,P03/Part1/P03_PPS_part1_1c.csv,Audio-Tactile,800.0,pink,Inhale,nan,True,Viscereality,0.5,0.5,73.0,791.8523076923077,177.69559654993802,347.61331631746265,1236.0912990671527,False,False,preregistered_2p5sd
4,P03,3,P03_recording.wav,1,1,4,4,Audio-Tactile,Exhale,nan,1500.0,soa_1500ms,brown,669.0,True,hit,Hit,observed,part1_wavblock1,reference_corrected_retained,99.984,wav_observed_reference_checked,nan,reference_checked_no_change,c,4,P03/Part1/P03_PPS_part1_1c.csv,Audio-Tactile,1500.0,brown,Exhale,nan,True,Viscereality,0.5,-0.5,50.0,791.8523076923077,177.69559654993802,347.61331631746265,1236.0912990671527,False,False,preregistered_2p5sd
5,P03,3,P03_recording.wav,1,1,5,5,Baseline,Inhale,nan,,baseline,nan,719.0,True,hit,Baseline_Hit,observed,part1_wavblock1,reference_corrected_retained,99.984,wav_observed_reference_checked,nan,reference_checked_no_change,c,5,P03/Part1/P03_PPS_part1_1c.csv,Baseline,,nan,Inhale,nan,True,Viscereality,0.5,0.5,,791.8523076923077,177.69559654993802,347.61331631746265,1236.0912990671527,False,False,preregistered_2p5sd
7,P03,3,P03_recording.wav,1,1,7,7,Audio-Tactile,Inhale,nan,300.0,soa_300ms,pink,844.0,True,hit,Hit,observed,part1_wavblock1,reference_corrected_retained,99.984,wav_observed_reference_checked,nan,reference_checked_no_change,c,7,P03/Part1/P03_PPS_part1_1c.csv,Audio-Tactile,300.0,pink,Inhale,nan,True,Viscereality,0.5,0.5,100.0,791.8523076923077,177.69559654993802,347.61331631746265,1236.0912990671527,False,False,preregistered_2p5sd
8,P03,3,P03_recording.wav,1,1,8,8,Audio-Tactile,Exhale,nan,800.0,soa_800ms,blue,690.0,True,hit,Hit,observed,part1_wavblock1,reference_corrected_retained,99.984,wav_observed_reference_checked,nan,reference_checked_no_change,c,8,P03/Part1/P03_PPS_part1_1c.csv,Audio-Tactile,800.0,blue,Exhale,nan,True,Viscereality,0.5,-0.5,73.0,791.8523076923077,177.69559654993802,347.61331631746265,1236.0912990671527,False,False,preregistered_2p5sd
10,P03,3,P03_recording.wav,1,1,10,10,Audio-Tactile,Exhale,nan,2700.0,soa_2700ms,blue,749.0,True,hit,Hit,observed,part1_wavblock1,reference_corrected_retained,99.984,wav_observed_reference_checked,nan,reference_checked_no_change,c,10,P03/Part1/P03_PPS_part1_1c.csv,Audio-Tactile,2700.0,blue,Exhale,nan,True,Viscereality,0.5,-0.5,10.0,791.8523076923077,177.69559654993802,347.61331631746265,1236.0912990671527,False,False,preregistered_2p5sd
11,P03,3,P03_recording.wav,1,1,11,11,Audio-Tactile,Inhale,nan,300.0,soa_300ms,white,779.0,True,hit,Hit,observed,part1_wavblock1,reference_corrected_retained,99.984,wav_observed_reference_checked,nan,reference_checked_no_change,c,11,P03/Part1/P03_PPS_part1_1c.csv,Audio-Tactile,300.0,white,Inhale,nan,True,Viscereality,0.5,0.5,100.0,791.8523076923077,177.69559654993802,347.61331631746265,1236.0912990671527,False,False,preregistered_2p5sd
12,P03,3,P03_recording.wav,1,1,12,12,Audio-Tactile,Exhale,nan,800.0,soa_800ms,brown,690.0,True,hit,Hit,observed,part1_wavblock1,reference_corrected_retained,99.984,wav_observed_reference_checked,nan,reference_checked_no_change,c,12,P03/Part1/P03_PPS_part1_1c.csv,Audio-Tactile,800.0,brown,Exhale,nan,True,Viscereality,0.5,-0.5,73.0,791.8523076923077,177.69559654993802,347.61331631746265,1236.0912990671527,False,False,preregistered_2p5sd
13,P03,3,P03_recording.wav,1,1,13,13,Audio-Tactile,Inhale,nan,2200.0,soa_2200ms,pink,694.0,True,hit,Hit,observed,part1_wavblock1,reference_corrected_retained,99.984,wav_observed_reference_checked,nan,reference_checked_no_change,c,13,P03/Part1/P03_PPS_part1_1c.csv,Audio-Tactile,2200.0,pink,Inhale,nan,True,Viscereality,0.5,0.5,27.0,791.8523076923077,177.69559654993802,347.61331631746265,1236.0912990671527,False,False,preregistered_2p5sd
14,P03,3,P03_recording.wav,1,1,14,14,Baseline,Exhale,nan,,baseline,nan,671.0,True,hit,Baseline_Hit,observed,part1_wavblock1,reference_corrected_retained,99.984,wav_observed_reference_checked,nan,reference_checked_no_change,c,14,P03/Part1/P03_PPS_part1_1c.csv,Baseline,,nan,Exhale,nan,True,Viscereality,0.5,-0.5,,791.8523076923077,177.69559654993802,347.61331631746265,1236.0912990671527,False,False,preregistered_2p5sd
15,P03,3,P03_recording.wav,1,1,15,15,Audio-Tactile,Inhale,nan,2200.0,soa_2200ms,white,681.0,True,hit,Hit,observed,part1_wavblock1,reference_corrected_retained,99.984,wav_observed_reference_checked,nan,reference_checked_no_change,c,15,P03/Part1/P03_PPS_part1_1c.csv,Audio-Tactile,2200.0,white,Inhale,nan,True,Viscereality,0.5,0.5,27.0,791.8523076923077,177.69559654993802,347.61331631746265,1236.0912990671527,False,False,preregistered_2p5sd
16,P03,3,P03_recording.wav,1,1,16,16,Audio-Tactile,Exhale,nan,2200.0,soa_2200ms,brown,753.0,True,hit,Hit,observed,part1_wavblock1,reference_corrected_retained,99.984,wav_observed_reference_checked,nan,reference_checked_no_change,c,16,P03/Part1/P03_PPS_part1_1c.csv,Audio-Tactile,2200.0,brown,Exhale,nan,True,Viscereality,0.5,-0.5,27.0,791.8523076923077,177.69559654993802,347.61331631746265,1236.0912990671527,False,False,preregistered_2p5sd
18,P03,3,P03_recording.wav,1,1,18,18,Baseline,Exhale,nan,,baseline,nan,792.0,True,hit,Baseline_Hit,observed,part1_wavblock1,reference_corrected_retained,99.984,wav_observed_reference_checked,nan,reference_checked_no_change,c,18,P03/Part1/P03_PPS_part1_1c.csv,Baseline,,nan,Exhale,nan,True,Viscereality,0.5,-0.5,,791.8523076923077,177.69559654993802,347.61331631746265,1236.0912990671527,False,False,preregistered_2p5sd
19,P03,3,P03_recording.wav,1,1,19,19,Audio-Tactile,Inhale,nan,2700.0,soa_2700ms,white,899.0,True,hit,Hit,observed,part1_wavblock1,reference_corrected_retained,99.984,wav_observed_reference_checked,nan,reference_checked_no_change,c,19,P03/Part1/P03_PPS_part1_1c.csv,Audio-Tactile,2700.0,white,Inhale,nan,True,Viscereality,0.5,0.5,10.0,791.8523076923077,177.69559654993802,347.61331631746265,1236.0912990671527,False,False,preregistered_2p5sd
20,P03,3,P03_recording.wav,1,1,20,20,Audio-Tactile,Exhale,nan,2700.0,soa_2700ms,brown,945.0,True,hit,Hit,observed,part1_wavblock1,reference_corrected_retained,99.984,wav_observed_reference_checked,nan,reference_checked_no_change,c,20,P03/Part1/P03_PPS_part1_1c.csv,Audio-Tactile,2700.0,brown,Exhale,nan,True,Viscereality,0.5,-0.5,10.0,791.8523076923077,177.69559654993802,347.61331631746265,1236.0912990671527,False,False,preregistered_2p5sd
21,P03,3,P03_recording.wav,1,1,21,21,Baseline,Inhale,nan,,baseline,nan,648.0,True,hit,Baseline_Hit,observed,part1_wavblock1,reference_corrected_retained,99.984,wav_observed_reference_checked,nan,reference_checked_no_change,c,21,P03/Part1/P03_PPS_part1_1c.csv,Baseline,,nan,Inhale,nan,True,Viscereality,0.5,0.5,,791.8523076923077,177.69559654993802,347.61331631746265,1236.0912990671527,False,False,preregistered_2p5sd
22,P03,3,P03_recording.wav,1,1,22,22,Audio-Tactile,Exhale,nan,300.0,soa_300ms,brown,628.0,True,hit,Hit,observed,part1_wavblock1,reference_corrected_retained,99.984,wav_observed_reference_checked,nan,reference_checked_no_change,c,22,P03/Part1/P03_PPS_part1_1c.csv,Audio-Tactile,300.0,brown,Exhale,nan,True,Viscereality,0.5,-0.5,100.0,791.8523076923077,177.69559654993802,347.61331631746265,1236.0912990671527,False,False,preregistered_2p5sd
23,P03,3,P03_recording.wav,1,1,23,23,Baseline,Inhale,nan,,baseline,nan,746.0,True,hit,Baseline_Hit,observed,part1_wavblock1,reference_corrected_retained,99.984,wav_observed_reference_checked,nan,reference_checked_no_change,c,23,P03/Part1/P03_PPS_part1_1c.csv,Baseline,,nan,Inhale,nan,True,Viscereality,0.5,0.5,,791.8523076923077,177.69559654993802,347.61331631746265,1236.0912990671527,False,False,preregistered_2p5sd
24,P03,3,P03_recording.wav,1,1,24,24,Audio-Tactile,Exhale,nan,1500.0,soa_1500ms,blue,552.0,True,hit,Hit,observed,part1_wavblock1,reference_corrected_retained,99.984,wav_observed_reference_checked,nan,reference_checked_no_change,c,24,P03/Part1/P03_PPS_part1_1c.csv,Audio-Tactile,1500.0,blue,Exhale,nan,True,Viscereality,0.5,-0.5,50.0,791.8523076923077,177.69559654993802,347.61331631746265,1236.0912990671527,False,False,preregistered_2p5sd
25,P03,3,P03_recording.wav,1,1,25,25,Audio-Tactile,Inhale,nan,800.0,soa_800ms,white,710.0,True,hit,Hit,observed,part1_wavblock1,reference_corrected_retained,99.984,wav_observed_reference_checked,nan,reference_checked_no_change,c,25,P03/Part1/P03_PPS_part1_1c.csv,Audio-Tactile,800.0,white,Inhale,nan,True,Viscereality,0.5,0.5,73.0,791.8523076923077,177.69559654993802,347.61331631746265,1236.0912990671527,False,False,preregistered_2p5sd
26,P03,3,P03_recording.wav,1,1,26,26,Baseline,Exhale,nan,,baseline,nan,804.0,True,hit,Baseline_Hit,observed,part1_wavblock1,reference_corrected_retained,99.984,wav_observed_reference_checked,nan,reference_checked_no_change,c,26,P03/Part1/P03_PPS_part1_1c.csv,Baseline,,nan,Exhale,nan,True,Viscereality,0.5,-0.5,,791.8523076923077,177.69559654993802,347.61331631746265,1236.0912990671527,False,False,preregistered_2p5sd
27,P03,3,P03_recording.wav,1,1,27,27,Audio-Tactile,Inhale,nan,2700.0,soa_2700ms,pink,664.0,True,hit,Hit,observed,part1_wavblock1,reference_corrected_retained,99.984,wav_observed_reference_checked,nan,reference_checked_no_change,c,27,P03/Part1/P03_PPS_part1_1c.csv,Audio-Tactile,2700.0,pink,Inhale,nan,True,Viscereality,0.5,0.5,10.0,791.8523076923077,177.69559654993802,347.61331631746265,1236.0912990671527,False,False,preregistered_2p5sd
28,P03,3,P03_recording.wav,1,1,28,28,Baseline,Exhale,nan,,baseline,nan,691.0,True,hit,Baseline_Hit,observed,part1_wavblock1,reference_corrected_retained,99.984,wav_observed_reference_checked,nan,reference_checked_no_change,c,28,P03/Part1/P03_PPS_part1_1c.csv,Baseline,,nan,Exhale,nan,True,Viscereality,0.5,-0.5,,791.8523076923077,177.69559654993802,347.61331631746265,1236.0912990671527,False,False,preregistered_2p5sd
29,P03,3,P03_recording.wav,1,1,29,29,Audio-Tactile,Inhale,nan,1500.0,soa_1500ms,white,637.0,True,hit,Hit,observed,part1_wavblock1,reference_corrected_retained,99.984,wav_observed_reference_checked,nan,reference_checked_no_change,c,29,P03/Part1/P03_PPS_part1_1c.csv,Audio-Tactile,1500.0,white,Inhale,nan,True,Viscereality,0.5,0.5,50.0,791.8523076923077,177.69559654993802,347.61331631746265,1236.0912990671527,False,False,preregistered_2p5sd
30,P03,3,P03_recording.wav,1,1,30,30,Audio-Tactile,Exhale,nan,2200.0,soa_2200ms,blue,831.0,True,hit,Hit,observed,part1_wavblock1,reference_corrected_retained,99.984,wav_observed_reference_checked,nan,reference_checked_no_change,c,30,P03/Part1/P03_PPS_part1_1c.csv,Audio-Tactile,2200.0,blue,Exhale,nan,True,Viscereality,0.5,-0.5,27.0,791.8523076923077,177.69559654993802,347.61331631746265,1236.0912990671527,False,False,preregistered_2p5sd
31,P03,3,P03_recording.wav,1,1,31,31,Baseline,Inhale,nan,,baseline,nan,639.0,True,hit,Baseline_Hit,observed,part1_wavblock1,reference_corrected_retained,99.984,wav_observed_reference_checked,nan,reference_checked_no_change,c,31,P03/Part1/P03_PPS_part1_1c.csv,Baseline,,nan,Inhale,nan,True,Viscereality,0.5,0.5,,791.8523076923077,177.69559654993802,347.61331631746265,1236.0912990671527,False,False,preregistered_2p5sd
33,P03,3,P03_recording.wav,1,1,33,33,Baseline,Inhale,nan,,baseline,nan,750.0,True,hit,Baseline_Hit,observed,part1_wavblock1,reference_corrected_retained,99.984,wav_observed_reference_checked,nan,reference_checked_no_change,c,33,P03/Part1/P03_PPS_part1_1c.csv,Baseline,,nan,Inhale,nan,True,Viscereality,0.5,0.5,,791.8523076923077,177.69559654993802,347.61331631746265,1236.0912990671527,False,False,preregistered_2p5sd
35,P03,3,P03_recording.wav,1,2,1,35,Baseline,Inhale,nan,,baseline,nan,784.0,True,hit,Baseline_Hit,observed,part1_wavblock2,reference_corrected_retained,99.984,wav_observed_reference_checked,nan,reference_checked_no_change,a,1,P03/Part1/P03_PPS_part1_2a.csv,Baseline,,nan,Inhale,nan,True,Viscereality,0.5,0.5,,791.8523076923077,177.69559654993802,347.61331631746265,1236.0912990671527,False,False,preregistered_2p5sd
36,P03,3,P03_recording.wav,1,2,2,36,Baseline,Exhale,nan,,baseline,nan,859.0,True,hit,Baseline_Hit,observed,part1_wavblock2,reference_corrected_retained,99.984,wav_observed_reference_checked,nan,reference_checked_no_change,a,2,P03/Part1/P03_PPS_part1_2a.csv,Baseline,,nan,Exhale,nan,True,Viscereality,0.5,-0.5,,791.8523076923077,177.69559654993802,347.61331631746265,1236.0912990671527,False,False,preregistered_2p5sd
37,P03,3,P03_recording.wav,1,2,3,37,Audio-Tactile,Inhale,nan,2700.0,soa_2700ms,white,624.0,True,hit,Hit,observed,part1_wavblock2,reference_corrected_retained,99.984,wav_observed_reference_checked,nan,reference_checked_no_change,a,3,P03/Part1/P03_PPS_part1_2a.csv,Audio-Tactile,2700.0,white,Inhale,nan,True,Viscereality,0.5,0.5,10.0,791.8523076923077,177.69559654993802,347.61331631746265,1236.0912990671527,False,False,preregistered_2p5sd
38,P03,3,P03_recording.wav,1,2,4,38,Audio-Tactile,Exhale,nan,800.0,soa_800ms,brown,649.0,True,hit,Hit,observed,part1_wavblock2,reference_corrected_retained,99.984,wav_observed_reference_checked,nan,reference_checked_no_change,a,4,P03/Part1/P03_PPS_part1_2a.csv,Audio-Tactile,800.0,brown,Exhale,nan,True,Viscereality,0.5,-0.5,73.0,791.8523076923077,177.69559654993802,347.61331631746265,1236.0912990671527,False,False,preregistered_2p5sd
39,P03,3,P03_recording.wav,1,2,5,39,Baseline,Inhale,nan,,baseline,nan,607.0,True,hit,Baseline_Hit,observed,part1_wavblock2,reference_corrected_retained,99.984,wav_observed_reference_checked,nan,reference_checked_no_change,a,5,P03/Part1/P03_PPS_part1_2a.csv,Baseline,,nan,Inhale,nan,True,Viscereality,0.5,0.5,,791.8523076923077,177.69559654993802,347.61331631746265,1236.0912990671527,False,False,preregistered_2p5sd
40,P03,3,P03_recording.wav,1,2,6,40,Audio-Tactile,Exhale,nan,1500.0,soa_1500ms,blue,668.0,True,hit,Hit,observed,part1_wavblock2,reference_corrected_retained,99.984,wav_observed_reference_checked,nan,reference_checked_no_change,a,6,P03/Part1/P03_PPS_part1_2a.csv,Audio-Tactile,1500.0,blue,Exhale,nan,True,Viscereality,0.5,-0.5,50.0,791.8523076923077,177.69559654993802,347.61331631746265,1236.0912990671527,False,False,preregistered_2p5sd
41,P03,3,P03_recording.wav,1,2,7,41,Audio-Tactile,Inhale,nan,300.0,soa_300ms,white,699.0,True,hit,Hit,observed,part1_wavblock2,reference_corrected_retained,99.984,wav_observed_reference_checked,nan,reference_checked_no_change,a,7,P03/Part1/P03_PPS_part1_2a.csv,Audio-Tactile,300.0,white,Inhale,nan,True,Viscereality,0.5,0.5,100.0,791.8523076923077,177.69559654993802,347.61331631746265,1236.0912990671527,False,False,preregistered_2p5sd
43,P03,3,P03_recording.wav,1,2,9,43,Baseline,Inhale,nan,,baseline,nan,795.0,True,hit,Baseline_Hit,observed,part1_wavblock2,reference_corrected_retained,99.984,wav_observed_reference_checked,nan,reference_checked_no_change,a,9,P03/Part1/P03_PPS_part1_2a.csv,Baseline,,nan,Inhale,nan,True,Viscereality,0.5,0.5,,791.8523076923077,177.69559654993802,347.61331631746265,1236.0912990671527,False,False,preregistered_2p5sd
44,P03,3,P03_recording.wav,1,2,10,44,Audio-Tactile,Exhale,nan,2200.0,soa_2200ms,blue,777.0,True,hit,Hit,observed,part1_wavblock2,reference_corrected_retained,99.984,wav_observed_reference_checked,nan,reference_checked_no_change,a,10,P03/Part1/P03_PPS_part1_2a.csv,Audio-Tactile,2200.0,blue,Exhale,nan,True,Viscereality,0.5,-0.5,27.0,791.8523076923077,177.69559654993802,347.61331631746265,1236.0912990671527,False,False,preregistered_2p5sd
45,P03,3,P03_recording.wav,1,2,11,45,Audio-Tactile,Inhale,nan,2200.0,soa_2200ms,pink,653.0,True,hit,Hit,observed,part1_wavblock2,reference_corrected_retained,99.984,wav_observed_reference_checked,nan,reference_checked_no_change,a,11,P03/Part1/P03_PPS_part1_2a.csv,Audio-Tactile,2200.0,pink,Inhale,nan,True,Viscereality,0.5,0.5,27.0,791.8523076923077,177.69559654993802,347.61331631746265,1236.0912990671527,False,False,preregistered_2p5sd
46,P03,3,P03_recording.wav,1,2,12,46,Baseline,Exhale,nan,,baseline,nan,621.0,True,hit,Baseline_Hit,observed,part1_wavblock2,reference_corrected_retained,99.984,wav_observed_reference_checked,nan,reference_checked_no_change,a,12,P03/Part1/P03_PPS_part1_2a.csv,Baseline,,nan,Exhale,nan,True,Viscereality,0.5,-0.5,,791.8523076923077,177.69559654993802,347.61331631746265,1236.0912990671527,False,False,preregistered_2p5sd
48,P03,3,P03_recording.wav,1,2,14,48,Audio-Tactile,Exhale,nan,300.0,soa_300ms,blue,601.0,True,hit,Hit,observed,part1_wavblock2,reference_corrected_retained,99.984,wav_observed_reference_checked,nan,reference_checked_no_change,a,14,P03/Part1/P03_PPS_part1_2a.csv,Audio-Tactile,300.0,blue,Exhale,nan,True,Viscereality,0.5,-0.5,100.0,791.8523076923077,177.69559654993802,347.61331631746265,1236.0912990671527,False,False,preregistered_2p5sd
49,P03,3,P03_recording.wav,1,2,15,49,Audio-Tactile,Inhale,nan,1500.0,soa_1500ms,white,883.0,True,hit,Hit,observed,part1_wavblock2,reference_corrected_retained,99.984,wav_observed_reference_checked,nan,reference_checked_no_change,a,15,P03/Part1/P03_PPS_part1_2a.csv,Audio-Tactile,1500.0,white,Inhale,nan,True,Viscereality,0.5,0.5,50.0,791.8523076923077,177.69559654993802,347.61331631746265,1236.0912990671527,False,False,preregistered_2p5sd
50,P03,3,P03_recording.wav,1,2,16,50,Audio-Tactile,Exhale,nan,300.0,soa_300ms,brown,666.0,True,hit,Hit,observed,part1_wavblock2,reference_corrected_retained,99.984,wav_observed_reference_checked,nan,reference_checked_no_change,a,16,P03/Part1/P03_PPS_part1_2a.csv,Audio-Tactile,300.0,brown,Exhale,nan,True,Viscereality,0.5,-0.5,100.0,791.8523076923077,177.69559654993802,347.61331631746265,1236.0912990671527,False,False,preregistered_2p5sd
51,P03,3,P03_recording.wav,1,2,17,51,Audio-Tactile,Inhale,nan,800.0,soa_800ms,pink,799.0,True,hit,Hit,observed,part1_wavblock2,reference_corrected_retained,99.984,wav_observed_reference_checked,nan,reference_checked_no_change,a,17,P03/Part1/P03_PPS_part1_2a.csv,Audio-Tactile,800.0,pink,Inhale,nan,True,Viscereality,0.5,0.5,73.0,791.8523076923077,177.69559654993802,347.61331631746265,1236.0912990671527,False,False,preregistered_2p5sd
52,P03,3,P03_recording.wav,1,2,18,52,Baseline,Exhale,nan,,baseline,nan,849.0,True,hit,Baseline_Hit,observed,part1_wavblock2,reference_corrected_retained,99.984,wav_observed_reference_checked,nan,reference_checked_no_change,a,18,P03/Part1/P03_PPS_part1_2a.csv,Baseline,,nan,Exhale,nan,True,Viscereality,0.5,-0.5,,791.8523076923077,177.69559654993802,347.61331631746265,1236.0912990671527,False,False,preregistered_2p5sd
53,P03,3,P03_recording.wav,1,2,19,53,Audio-Tactile,Inhale,nan,1500.0,soa_1500ms,pink,935.0,True,hit,Hit,observed,part1_wavblock2,reference_corrected_retained,99.984,wav_observed_reference_checked,nan,reference_checked_no_change,a,19,P03/Part1/P03_PPS_part1_2a.csv,Audio-Tactile,1500.0,pink,Inhale,nan,True,Viscereality,0.5,0.5,50.0,791.8523076923077,177.69559654993802,347.61331631746265,1236.0912990671527,False,False,preregistered_2p5sd
54,P03,3,P03_recording.wav,1,2,20,54,Audio-Tactile,Exhale,nan,2200.0,soa_2200ms,brown,582.0,True,hit,Hit,observed,part1_wavblock2,reference_corrected_retained,99.984,wav_observed_reference_checked,nan,reference_checked_no_change,a,20,P03/Part1/P03_PPS_part1_2a.csv,Audio-Tactile,2200.0,brown,Exhale,nan,True,Viscereality,0.5,-0.5,27.0,791.8523076923077,177.69559654993802,347.61331631746265,1236.0912990671527,False,False,preregistered_2p5sd
55,P03,3,P03_recording.wav,1,2,21,55,Baseline,Inhale,nan,,baseline,nan,911.0,True,hit,Baseline_Hit,observed,part1_wavblock2,reference_corrected_retained,99.984,wav_observed_reference_checked,nan,reference_checked_no_change,a,21,P03/Part1/P03_PPS_part1_2a.csv,Baseline,,nan,Inhale,nan,True,Viscereality,0.5,0.5,,791.8523076923077,177.69559654993802,347.61331631746265,1236.0912990671527,False,False,preregistered_2p5sd
56,P03,3,P03_recording.wav,1,2,22,56,Audio-Tactile,Exhale,nan,800.0,soa_800ms,blue,819.0,True,hit,Hit,observed,part1_wavblock2,reference_corrected_retained,99.984,wav_observed_reference_checked,nan,reference_checked_no_change,a,22,P03/Part1/P03_PPS_part1_2a.csv,Audio-Tactile,800.0,blue,Exhale,nan,True,Viscereality,0.5,-0.5,73.0,791.8523076923077,177.69559654993802,347.61331631746265,1236.0912990671527,False,False,preregistered_2p5sd
57,P03,3,P03_recording.wav,1,2,23,57,Audio-Tactile,Inhale,nan,300.0,soa_300ms,pink,777.0,True,hit,Hit,observed,part1_wavblock2,reference_corrected_retained,99.984,wav_observed_reference_checked,nan,reference_checked_no_change,a,23,P03/Part1/P03_PPS_part1_2a.csv,Audio-Tactile,300.0,pink,Inhale,nan,True,Viscereality,0.5,0.5,100.0,791.8523076923077,177.69559654993802,347.61331631746265,1236.0912990671527,False,False,preregistered_2p5sd
58,P03,3,P03_recording.wav,1,2,24,58,Audio-Tactile,Exhale,nan,1500.0,soa_1500ms,brown,720.0,True,hit,Hit,observed,part1_wavblock2,reference_corrected_retained,99.984,wav_observed_reference_checked,nan,reference_checked_no_change,a,24,P03/Part1/P03_PPS_part1_2a.csv,Audio-Tactile,1500.0,brown,Exhale,nan,True,Viscereality,0.5,-0.5,50.0,791.8523076923077,177.69559654993802,347.61331631746265,1236.0912990671527,False,False,preregistered_2p5sd
59,P03,3,P03_recording.wav,1,2,25,59,Baseline,Inhale,nan,,baseline,nan,775.0,True,hit,Baseline_Hit,observed,part1_wavblock2,reference_corrected_retained,99.984,wav_observed_reference_checked,nan,reference_checked_no_change,a,25,P03/Part1/P03_PPS_part1_2a.csv,Baseline,,nan,Inhale,nan,True,Viscereality,0.5,0.5,,791.8523076923077,177.69559654993802,347.61331631746265,1236.0912990671527,False,False,preregistered_2p5sd
60,P03,3,P03_recording.wav,1,2,26,60,Baseline,Exhale,nan,,baseline,nan,697.0,True,hit,Baseline_Hit,observed,part1_wavblock2,reference_corrected_retained,99.984,wav_observed_reference_checked,nan,reference_checked_no_change,a,26,P03/Part1/P03_PPS_part1_2a.csv,Baseline,,nan,Exhale,nan,True,Viscereality,0.5,-0.5,,791.8523076923077,177.69559654993802,347.61331631746265,1236.0912990671527,False,False,preregistered_2p5sd
61,P03,3,P03_recording.wav,1,2,27,61,Audio-Tactile,Inhale,nan,2200.0,soa_2200ms,white,653.0,True,hit,Hit,observed,part1_wavblock2,reference_corrected_retained,99.984,wav_observed_reference_checked,nan,reference_checked_no_change,a,27,P03/Part1/P03_PPS_part1_2a.csv,Audio-Tactile,2200.0,white,Inhale,nan,True,Viscereality,0.5,0.5,27.0,791.8523076923077,177.69559654993802,347.61331631746265,1236.0912990671527,False,False,preregistered_2p5sd
63,P03,3,P03_recording.wav,1,2,29,63,Audio-Tactile,Inhale,nan,800.0,soa_800ms,white,538.0,True,hit,Hit,observed,part1_wavblock2,reference_corrected_retained,99.984,wav_observed_reference_checked,nan,reference_checked_no_change,a,29,P03/Part1/P03_PPS_part1_2a.csv,Audio-Tactile,800.0,white,Inhale,nan,True,Viscereality,0.5,0.5,73.0,791.8523076923077,177.69559654993802,347.61331631746265,1236.0912990671527,False,False,preregistered_2p5sd
64,P03,3,P03_recording.wav,1,2,30,64,Audio-Tactile,Exhale,nan,2700.0,soa_2700ms,brown,695.0,True,hit,Hit,observed,part1_wavblock2,reference_corrected_retained,99.984,wav_observed_reference_checked,nan,reference_checked_no_change,a,30,P03/Part1/P03_PPS_part1_2a.csv,Audio-Tactile,2700.0,brown,Exhale,nan,True,Viscereality,0.5,-0.5,10.0,791.8523076923077,177.69559654993802,347.61331631746265,1236.0912990671527,False,False,preregistered_2p5sd
66,P03,3,P03_recording.wav,1,2,32,66,Audio-Tactile,Exhale,nan,2700.0,soa_2700ms,blue,643.0,True,hit,Hit,observed,part1_wavblock2,reference_corrected_retained,99.984,wav_observed_reference_checked,nan,reference_checked_no_change,a,32,P03/Part1/P03_PPS_part1_2a.csv,Audio-Tactile,2700.0,blue,Exhale,nan,True,Viscereality,0.5,-0.5,10.0,791.8523076923077,177.69559654993802,347.61331631746265,1236.0912990671527,False,False,preregistered_2p5sd
67,P03,3,P03_recording.wav,1,2,33,67,Audio-Tactile,Inhale,nan,2700.0,soa_2700ms,pink,1055.0,True,hit,Hit,observed,part1_wavblock2,reference_corrected_retained,99.984,wav_observed_reference_checked,nan,reference_checked_no_change,a,33,P03/Part1/P03_PPS_part1_2a.csv,Audio-Tactile,2700.0,pink,Inhale,nan,True,Viscereality,0.5,0.5,10.0,791.8523076923077,177.69559654993802,347.61331631746265,1236.0912990671527,False,False,preregistered_2p5sd
68,P03,3,P03_recording.wav,1,2,34,68,Baseline,Exhale,nan,,baseline,nan,774.0,True,hit,Baseline_Hit,observed,part1_wavblock2,reference_corrected_retained,99.984,wav_observed_reference_checked,nan,reference_checked_no_change,a,34,P03/Part1/P03_PPS_part1_2a.csv,Baseline,,nan,Exhale,nan,True,Viscereality,0.5,-0.5,,791.8523076923077,177.69559654993802,347.61331631746265,1236.0912990671527,False,False,preregistered_2p5sd
69,P03,3,P03_recording.wav,1,3,1,69,Audio-Tactile,Inhale,nan,2200.0,soa_2200ms,blue,890.0,True,hit,Hit,observed,part1_wavblock3,reference_corrected_retained,99.984,wav_observed_reference_checked,nan,reference_checked_no_change,d,1,P03/Part1/P03_PPS_part1_3d.csv,Audio-Tactile,2200.0,blue,Inhale,nan,True,Viscereality,0.5,0.5,27.0,791.8523076923077,177.69559654993802,347.61331631746265,1236.0912990671527,False,False,preregistered_2p5sd
70,P03,3,P03_recording.wav,1,3,2,70,Audio-Tactile,Exhale,nan,2200.0,soa_2200ms,white,909.0,True,hit,Hit,observed,part1_wavblock3,reference_corrected_retained,99.984,wav_observed_reference_checked,nan,reference_checked_no_change,d,2,P03/Part1/P03_PPS_part1_3d.csv,Audio-Tactile,2200.0,white,Exhale,nan,True,Viscereality,0.5,-0.5,27.0,791.8523076923077,177.69559654993802,347.61331631746265,1236.0912990671527,False,False,preregistered_2p5sd
72,P03,3,P03_recording.wav,1,3,4,72,Audio-Tactile,Exhale,nan,1500.0,soa_1500ms,pink,708.0,True,hit,Hit,observed,part1_wavblock3,reference_corrected_retained,99.984,wav_observed_reference_checked,nan,reference_checked_no_change,d,4,P03/Part1/P03_PPS_part1_3d.csv,Audio-Tactile,1500.0,pink,Exhale,nan,True,Viscereality,0.5,-0.5,50.0,791.8523076923077,177.69559654993802,347.61331631746265,1236.0912990671527,False,False,preregistered_2p5sd
73,P03,3,P03_recording.wav,1,3,5,73,Baseline,Inhale,nan,,baseline,nan,752.0,True,hit,Baseline_Hit,observed,part1_wavblock3,reference_corrected_retained,99.984,wav_observed_reference_checked,nan,reference_checked_no_change,d,5,P03/Part1/P03_PPS_part1_3d.csv,Baseline,,nan,Inhale,nan,True,Viscereality,0.5,0.5,,791.8523076923077,177.69559654993802,347.61331631746265,1236.0912990671527,False,False,preregistered_2p5sd
74,P03,3,P03_recording.wav,1,3,6,74,Baseline,Exhale,nan,,baseline,nan,828.0,True,hit,Baseline_Hit,observed,part1_wavblock3,reference_corrected_retained,99.984,wav_observed_reference_checked,nan,reference_checked_no_change,d,6,P03/Part1/P03_PPS_part1_3d.csv,Baseline,,nan,Exhale,nan,True,Viscereality,0.5,-0.5,,791.8523076923077,177.69559654993802,347.61331631746265,1236.0912990671527,False,False,preregistered_2p5sd
75,P03,3,P03_recording.wav,1,3,7,75,Audio-Tactile,Inhale,nan,2200.0,soa_2200ms,brown,877.0,True,hit,Hit,observed,part1_wavblock3,reference_corrected_retained,99.984,wav_observed_reference_checked,nan,reference_checked_no_change,d,7,P03/Part1/P03_PPS_part1_3d.csv,Audio-Tactile,2200.0,brown,Inhale,nan,True,Viscereality,0.5,0.5,27.0,791.8523076923077,177.69559654993802,347.61331631746265,1236.0912990671527,False,False,preregistered_2p5sd
77,P03,3,P03_recording.wav,1,3,9,77,Audio-Tactile,Inhale,nan,2700.0,soa_2700ms,blue,742.0,True,hit,Hit,observed,part1_wavblock3,reference_corrected_retained,99.984,wav_observed_reference_checked,nan,reference_checked_no_change,d,9,P03/Part1/P03_PPS_part1_3d.csv,Audio-Tactile,2700.0,blue,Inhale,nan,True,Viscereality,0.5,0.5,10.0,791.8523076923077,177.69559654993802,347.61331631746265,1236.0912990671527,False,False,preregistered_2p5sd
78,P03,3,P03_recording.wav,1,3,10,78,Baseline,Exhale,nan,,baseline,nan,719.0,True,hit,Baseline_Hit,observed,part1_wavblock3,reference_corrected_retained,99.984,wav_observed_reference_checked,nan,reference_checked_no_change,d,10,P03/Part1/P03_PPS_part1_3d.csv,Baseline,,nan,Exhale,nan,True,Viscereality,0.5,-0.5,,791.8523076923077,177.69559654993802,347.61331631746265,1236.0912990671527,False,False,preregistered_2p5sd
79,P03,3,P03_recording.wav,1,3,11,79,Baseline,Inhale,nan,,baseline,nan,1043.0,True,hit,Baseline_Hit,observed,part1_wavblock3,reference_corrected_retained,99.984,wav_observed_reference_checked,nan,reference_checked_no_change,d,11,P03/Part1/P03_PPS_part1_3d.csv,Baseline,,nan,Inhale,nan,True,Viscereality,0.5,0.5,,791.8523076923077,177.69559654993802,347.61331631746265,1236.0912990671527,False,False,preregistered_2p5sd
80,P03,3,P03_recording.wav,1,3,12,80,Audio-Tactile,Exhale,nan,2700.0,soa_2700ms,white,749.0,True,hit,Hit,observed,part1_wavblock3,reference_corrected_retained,99.984,wav_observed_reference_checked,nan,reference_checked_no_change,d,12,P03/Part1/P03_PPS_part1_3d.csv,Audio-Tactile,2700.0,white,Exhale,nan,True,Viscereality,0.5,-0.5,10.0,791.8523076923077,177.69559654993802,347.61331631746265,1236.0912990671527,False,False,preregistered_2p5sd
81,P03,3,P03_recording.wav,1,3,13,81,Baseline,Inhale,nan,,baseline,nan,789.0,True,hit,Baseline_Hit,observed,part1_wavblock3,reference_corrected_retained,99.984,wav_observed_reference_checked,nan,reference_checked_no_change,d,13,P03/Part1/P03_PPS_part1_3d.csv,Baseline,,nan,Inhale,nan,True,Viscereality,0.5,0.5,,791.8523076923077,177.69559654993802,347.61331631746265,1236.0912990671527,False,False,preregistered_2p5sd
82,P03,3,P03_recording.wav,1,3,14,82,Audio-Tactile,Exhale,nan,300.0,soa_300ms,white,589.0,True,hit,Hit,observed,part1_wavblock3,reference_corrected_retained,99.984,wav_observed_reference_checked,nan,reference_checked_no_change,d,14,P03/Part1/P03_PPS_part1_3d.csv,Audio-Tactile,300.0,white,Exhale,nan,True,Viscereality,0.5,-0.5,100.0,791.8523076923077,177.69559654993802,347.61331631746265,1236.0912990671527,False,False,preregistered_2p5sd
83,P03,3,P03_recording.wav,1,3,15,83,Audio-Tactile,Inhale,nan,800.0,soa_800ms,blue,957.0,True,hit,Hit,observed,part1_wavblock3,reference_corrected_retained,99.984,wav_observed_reference_checked,nan,reference_checked_no_change,d,15,P03/Part1/P03_PPS_part1_3d.csv,Audio-Tactile,800.0,blue,Inhale,nan,True,Viscereality,0.5,0.5,73.0,791.8523076923077,177.69559654993802,347.61331631746265,1236.0912990671527,False,False,preregistered_2p5sd
84,P03,3,P03_recording.wav,1,3,16,84,Baseline,Exhale,nan,,baseline,nan,861.0,True,hit,Baseline_Hit,observed,part1_wavblock3,reference_corrected_retained,99.984,wav_observed_reference_checked,nan,reference_checked_no_change,d,16,P03/Part1/P03_PPS_part1_3d.csv,Baseline,,nan,Exhale,nan,True,Viscereality,0.5,-0.5,,791.8523076923077,177.69559654993802,347.61331631746265,1236.0912990671527,False,False,preregistered_2p5sd
85,P03,3,P03_recording.wav,1,3,17,85,Audio-Tactile,Inhale,nan,300.0,soa_300ms,brown,687.0,True,hit,Hit,observed,part1_wavblock3,reference_corrected_retained,99.984,wav_observed_reference_checked,nan,reference_checked_no_change,d,17,P03/Part1/P03_PPS_part1_3d.csv,Audio-Tactile,300.0,brown,Inhale,nan,True,Viscereality,0.5,0.5,100.0,791.8523076923077,177.69559654993802,347.61331631746265,1236.0912990671527,False,False,preregistered_2p5sd
86,P03,3,P03_recording.wav,1,3,18,86,Audio-Tactile,Exhale,nan,2700.0,soa_2700ms,pink,788.0,True,hit,Hit,observed,part1_wavblock3,reference_corrected_retained,99.984,wav_observed_reference_checked,nan,reference_checked_no_change,d,18,P03/Part1/P03_PPS_part1_3d.csv,Audio-Tactile,2700.0,pink,Exhale,nan,True,Viscereality,0.5,-0.5,10.0,791.8523076923077,177.69559654993802,347.61331631746265,1236.0912990671527,False,False,preregistered_2p5sd
87,P03,3,P03_recording.wav,1,3,19,87,Baseline,Inhale,nan,,baseline,nan,849.0,True,hit,Baseline_Hit,observed,part1_wavblock3,reference_corrected_retained,99.984,wav_observed_reference_checked,nan,reference_checked_no_change,d,19,P03/Part1/P03_PPS_part1_3d.csv,Baseline,,nan,Inhale,nan,True,Viscereality,0.5,0.5,,791.8523076923077,177.69559654993802,347.61331631746265,1236.0912990671527,False,False,preregistered_2p5sd
88,P03,3,P03_recording.wav,1,3,20,88,Baseline,Exhale,nan,,baseline,nan,988.0,True,hit,Baseline_Hit,observed,part1_wavblock3,reference_corrected_retained,99.984,wav_observed_reference_checked,nan,reference_checked_no_change,d,20,P03/Part1/P03_PPS_part1_3d.csv,Baseline,,nan,Exhale,nan,True,Viscereality,0.5,-0.5,,791.8523076923077,177.69559654993802,347.61331631746265,1236.0912990671527,False,False,preregistered_2p5sd
89,P03,3,P03_recording.wav,1,3,21,89,Audio-Tactile,Inhale,nan,2700.0,soa_2700ms,brown,964.0,True,hit,Hit,observed,part1_wavblock3,reference_corrected_retained,99.984,wav_observed_reference_checked,nan,reference_checked_no_change,d,21,P03/Part1/P03_PPS_part1_3d.csv,Audio-Tactile,2700.0,brown,Inhale,nan,True,Viscereality,0.5,0.5,10.0,791.8523076923077,177.69559654993802,347.61331631746265,1236.0912990671527,False,False,preregistered_2p5sd
90,P03,3,P03_recording.wav,1,3,22,90,Audio-Tactile,Exhale,nan,2200.0,soa_2200ms,pink,1014.0,True,hit,Hit,observed,part1_wavblock3,reference_corrected_retained,99.984,wav_observed_reference_checked,nan,reference_checked_no_change,d,22,P03/Part1/P03_PPS_part1_3d.csv,Audio-Tactile,2200.0,pink,Exhale,nan,True,Viscereality,0.5,-0.5,27.0,791.8523076923077,177.69559654993802,347.61331631746265,1236.0912990671527,False,False,preregistered_2p5sd
92,P03,3,P03_recording.wav,1,3,24,92,Audio-Tactile,Exhale,nan,300.0,soa_300ms,pink,693.0,True,hit,Hit,observed,part1_wavblock3,reference_corrected_retained,99.984,wav_observed_reference_checked,nan,reference_checked_no_change,d,24,P03/Part1/P03_PPS_part1_3d.csv,Audio-Tactile,300.0,pink,Exhale,nan,True,Viscereality,0.5,-0.5,100.0,791.8523076923077,177.69559654993802,347.61331631746265,1236.0912990671527,False,False,preregistered_2p5sd
93,P03,3,P03_recording.wav,1,3,25,93,Audio-Tactile,Inhale,nan,300.0,soa_300ms,blue,608.0,True,hit,Hit,observed,part1_wavblock3,reference_corrected_retained,99.984,wav_observed_reference_checked,nan,reference_checked_no_change,d,25,P03/Part1/P03_PPS_part1_3d.csv,Audio-Tactile,300.0,blue,Inhale,nan,True,Viscereality,0.5,0.5,100.0,791.8523076923077,177.69559654993802,347.61331631746265,1236.0912990671527,False,False,preregistered_2p5sd
95,P03,3,P03_recording.wav,1,3,27,95,Baseline,Inhale,nan,,baseline,nan,811.0,True,hit,Baseline_Hit,observed,part1_wavblock3,reference_corrected_retained,99.984,wav_observed_reference_checked,nan,reference_checked_no_change,d,27,P03/Part1/P03_PPS_part1_3d.csv,Baseline,,nan,Inhale,nan,True,Viscereality,0.5,0.5,,791.8523076923077,177.69559654993802,347.61331631746265,1236.0912990671527,False,False,preregistered_2p5sd
96,P03,3,P03_recording.wav,1,3,28,96,Baseline,Exhale,nan,,baseline,nan,882.0,True,hit,Baseline_Hit,observed,part1_wavblock3,reference_corrected_retained,99.984,wav_observed_reference_checked,nan,reference_checked_no_change,d,28,P03/Part1/P03_PPS_part1_3d.csv,Baseline,,nan,Exhale,nan,True,Viscereality,0.5,-0.5,,791.8523076923077,177.69559654993802,347.61331631746265,1236.0912990671527,False,False,preregistered_2p5sd
98,P03,3,P03_recording.wav,1,3,30,98,Audio-Tactile,Exhale,nan,800.0,soa_800ms,white,807.0,True,hit,Hit,observed,part1_wavblock3,reference_corrected_retained,99.984,wav_observed_reference_checked,nan,reference_checked_no_change,d,30,P03/Part1/P03_PPS_part1_3d.csv,Audio-Tactile,800.0,white,Exhale,nan,True,Viscereality,0.5,-0.5,73.0,791.8523076923077,177.69559654993802,347.61331631746265,1236.0912990671527,False,False,preregistered_2p5sd
100,P03,3,P03_recording.wav,1,3,32,100,Audio-Tactile,Exhale,nan,1500.0,soa_1500ms,white,747.0,True,hit,Hit,observed,part1_wavblock3,reference_corrected_retained,99.984,wav_observed_reference_checked,nan,reference_checked_no_change,d,32,P03/Part1/P03_PPS_part1_3d.csv,Audio-Tactile,1500.0,white,Exhale,nan,True,Viscereality,0.5,-0.5,50.0,791.8523076923077,177.69559654993802,347.61331631746265,1236.0912990671527,False,False,preregistered_2p5sd
101,P03,3,P03_recording.wav,1,3,33,101,Audio-Tactile,Inhale,nan,800.0,soa_800ms,brown,775.0,True,hit,Hit,observed,part1_wavblock3,reference_corrected_retained,99.984,wav_observed_reference_checked,nan,reference_checked_no_change,d,33,P03/Part1/P03_PPS_part1_3d.csv,Audio-Tactile,800.0,brown,Inhale,nan,True,Viscereality,0.5,0.5,73.0,791.8523076923077,177.69559654993802,347.61331631746265,1236.0912990671527,False,False,preregistered_2p5sd
103,P03,3,P03_recording.wav,1,4,1,103,Audio-Tactile,Inhale,nan,2200.0,soa_2200ms,blue,1067.0,True,hit,Hit,observed,part1_wavblock4,reference_corrected_retained,64.5,wav_observed_reference_checked,excluded_incomplete,reference_checked_no_change,f,1,P03/Part1/P03_PPS_part1_4f.csv,Audio-Tactile,2200.0,blue,Inhale,nan,True,Viscereality,0.5,0.5,27.0,791.8523076923077,177.69559654993802,347.61331631746265,1236.0912990671527,False,False,preregistered_2p5sd
104,P03,3,P03_recording.wav,1,4,2,104,Audio-Tactile,Exhale,nan,2700.0,soa_2700ms,pink,822.0,True,hit,Hit,observed,part1_wavblock4,reference_corrected_retained,64.5,wav_observed_reference_checked,excluded_incomplete,reference_checked_no_change,f,2,P03/Part1/P03_PPS_part1_4f.csv,Audio-Tactile,2700.0,pink,Exhale,nan,True,Viscereality,0.5,-0.5,10.0,791.8523076923077,177.69559654993802,347.61331631746265,1236.0912990671527,False,False,preregistered_2p5sd
105,P03,3,P03_recording.wav,1,4,3,105,Baseline,Inhale,nan,,baseline,nan,770.0,True,hit,Baseline_Hit,observed,part1_wavblock4,reference_corrected_retained,64.5,wav_observed_reference_checked,excluded_incomplete,reference_checked_no_change,f,3,P03/Part1/P03_PPS_part1_4f.csv,Baseline,,nan,Inhale,nan,True,Viscereality,0.5,0.5,,791.8523076923077,177.69559654993802,347.61331631746265,1236.0912990671527,False,False,preregistered_2p5sd
106,P03,3,P03_recording.wav,1,4,4,106,Audio-Tactile,Exhale,nan,800.0,soa_800ms,pink,789.0,True,hit,Hit,observed,part1_wavblock4,reference_corrected_retained,64.5,wav_observed_reference_checked,excluded_incomplete,reference_checked_no_change,f,4,P03/Part1/P03_PPS_part1_4f.csv,Audio-Tactile,800.0,pink,Exhale,nan,True,Viscereality,0.5,-0.5,73.0,791.8523076923077,177.69559654993802,347.61331631746265,1236.0912990671527,False,False,preregistered_2p5sd
107,P03,3,P03_recording.wav,1,4,5,107,Audio-Tactile,Inhale,nan,1500.0,soa_1500ms,brown,709.0,True,hit,Hit,observed,part1_wavblock4,reference_corrected_retained,64.5,wav_observed_reference_checked,excluded_incomplete,reference_checked_no_change,f,5,P03/Part1/P03_PPS_part1_4f.csv,Audio-Tactile,1500.0,brown,Inhale,nan,True,Viscereality,0.5,0.5,50.0,791.8523076923077,177.69559654993802,347.61331631746265,1236.0912990671527,False,False,preregistered_2p5sd
108,P03,3,P03_recording.wav,1,4,6,108,Baseline,Exhale,nan,,baseline,nan,744.0,True,hit,Baseline_Hit,observed,part1_wavblock4,reference_corrected_retained,64.5,wav_observed_reference_checked,excluded_incomplete,reference_checked_no_change,f,6,P03/Part1/P03_PPS_part1_4f.csv,Baseline,,nan,Exhale,nan,True,Viscereality,0.5,-0.5,,791.8523076923077,177.69559654993802,347.61331631746265,1236.0912990671527,False,False,preregistered_2p5sd
109,P03,3,P03_recording.wav,1,4,7,109,Audio-Tactile,Inhale,nan,2700.0,soa_2700ms,brown,1050.0,True,hit,Hit,observed,part1_wavblock4,reference_corrected_retained,64.5,wav_observed_reference_checked,excluded_incomplete,reference_checked_no_change,f,7,P03/Part1/P03_PPS_part1_4f.csv,Audio-Tactile,2700.0,brown,Inhale,nan,True,Viscereality,0.5,0.5,10.0,791.8523076923077,177.69559654993802,347.61331631746265,1236.0912990671527,False,False,preregistered_2p5sd
110,P03,3,P03_recording.wav,1,4,8,110,Baseline,Exhale,nan,,baseline,nan,1064.0,True,hit,Baseline_Hit,observed,part1_wavblock4,reference_corrected_retained,64.5,wav_observed_reference_checked,excluded_incomplete,reference_checked_no_change,f,8,P03/Part1/P03_PPS_part1_4f.csv,Baseline,,nan,Exhale,nan,True,Viscereality,0.5,-0.5,,791.8523076923077,177.69559654993802,347.61331631746265,1236.0912990671527,False,False,preregistered_2p5sd
111,P03,3,P03_recording.wav,1,4,9,111,Audio-Tactile,Inhale,nan,800.0,soa_800ms,brown,834.0,True,hit,Hit,observed,part1_wavblock4,reference_corrected_retained,64.5,wav_observed_reference_checked,excluded_incomplete,reference_checked_no_change,f,9,P03/Part1/P03_PPS_part1_4f.csv,Audio-Tactile,800.0,brown,Inhale,nan,True,Viscereality,0.5,0.5,73.0,791.8523076923077,177.69559654993802,347.61331631746265,1236.0912990671527,False,False,preregistered_2p5sd
114,P03,3,P03_recording.wav,1,4,12,114,Baseline,Exhale,nan,,baseline,nan,876.0,True,hit,Baseline_Hit,observed,part1_wavblock4,reference_corrected_retained,64.5,wav_observed_reference_checked,excluded_incomplete,reference_checked_no_change,f,12,P03/Part1/P03_PPS_part1_4f.csv,Baseline,,nan,Exhale,nan,True,Viscereality,0.5,-0.5,,791.8523076923077,177.69559654993802,347.61331631746265,1236.0912990671527,False,False,preregistered_2p5sd
115,P03,3,P03_recording.wav,1,4,13,115,Audio-Tactile,Inhale,nan,1500.0,soa_1500ms,blue,879.0,True,hit,Hit,observed,part1_wavblock4,reference_corrected_retained,64.5,wav_observed_reference_checked,excluded_incomplete,reference_checked_no_change,f,13,P03/Part1/P03_PPS_part1_4f.csv,Audio-Tactile,1500.0,blue,Inhale,nan,True,Viscereality,0.5,0.5,50.0,791.8523076923077,177.69559654993802,347.61331631746265,1236.0912990671527,False,False,preregistered_2p5sd
117,P03,3,P03_recording.wav,1,4,15,117,Audio-Tactile,Inhale,nan,300.0,soa_300ms,blue,877.0,True,hit,Hit,observed,part1_wavblock4,reference_corrected_retained,64.5,wav_observed_reference_checked,excluded_incomplete,reference_checked_no_change,f,15,P03/Part1/P03_PPS_part1_4f.csv,Audio-Tactile,300.0,blue,Inhale,nan,True,Viscereality,0.5,0.5,100.0,791.8523076923077,177.69559654993802,347.61331631746265,1236.0912990671527,False,False,preregistered_2p5sd
118,P03,3,P03_recording.wav,1,4,16,118,Audio-Tactile,Exhale,nan,800.0,soa_800ms,white,776.0,True,hit,Hit,observed,part1_wavblock4,reference_corrected_retained,64.5,wav_observed_reference_checked,excluded_incomplete,reference_checked_no_change,f,16,P03/Part1/P03_PPS_part1_4f.csv,Audio-Tactile,800.0,white,Exhale,nan,True,Viscereality,0.5,-0.5,73.0,791.8523076923077,177.69559654993802,347.61331631746265,1236.0912990671527,False,False,preregistered_2p5sd
120,P03,3,P03_recording.wav,1,4,18,120,Baseline,Exhale,nan,,baseline,nan,865.0,True,hit,Baseline_Hit,observed,part1_wavblock4,reference_corrected_retained,64.5,wav_observed_reference_checked,excluded_incomplete,reference_checked_no_change,f,18,P03/Part1/P03_PPS_part1_4f.csv,Baseline,,nan,Exhale,nan,True,Viscereality,0.5,-0.5,,791.8523076923077,177.69559654993802,347.61331631746265,1236.0912990671527,False,False,preregistered_2p5sd
121,P03,3,P03_recording.wav,1,4,19,121,Baseline,Inhale,nan,,baseline,nan,897.0,True,hit,Baseline_Hit,observed,part1_wavblock4,reference_corrected_retained,64.5,wav_observed_reference_checked,excluded_incomplete,reference_checked_no_change,f,19,P03/Part1/P03_PPS_part1_4f.csv,Baseline,,nan,Inhale,nan,True,Viscereality,0.5,0.5,,791.8523076923077,177.69559654993802,347.61331631746265,1236.0912990671527,False,False,preregistered_2p5sd
122,P03,3,P03_recording.wav,1,4,20,122,Audio-Tactile,Exhale,nan,2200.0,soa_2200ms,white,603.0,True,hit,Hit,observed,part1_wavblock4,reference_corrected_retained,64.5,wav_observed_reference_checked,excluded_incomplete,reference_checked_no_change,f,20,P03/Part1/P03_PPS_part1_4f.csv,Audio-Tactile,2200.0,white,Exhale,nan,True,Viscereality,0.5,-0.5,27.0,791.8523076923077,177.69559654993802,347.61331631746265,1236.0912990671527,False,False,preregistered_2p5sd
123,P03,3,P03_recording.wav,1,4,21,123,Baseline,Inhale,nan,,baseline,nan,646.0,True,hit,Baseline_Hit,observed,part1_wavblock4,reference_corrected_retained,64.5,wav_observed_reference_checked,excluded_incomplete,reference_checked_no_change,f,21,P03/Part1/P03_PPS_part1_4f.csv,Baseline,,nan,Inhale,nan,True,Viscereality,0.5,0.5,,791.8523076923077,177.69559654993802,347.61331631746265,1236.0912990671527,False,False,preregistered_2p5sd
126,P03,3,P03_recording.wav,1,4,24,126,Audio-Tactile,Exhale,nan,300.0,soa_300ms,pink,858.0,True,hit,Hit,observed,part1_wavblock4,reference_corrected_retained,64.5,wav_observed_reference_checked,excluded_incomplete,reference_checked_no_change,f,24,P03/Part1/P03_PPS_part1_4f.csv,Audio-Tactile,300.0,pink,Exhale,nan,True,Viscereality,0.5,-0.5,100.0,791.8523076923077,177.69559654993802,347.61331631746265,1236.0912990671527,False,False,preregistered_2p5sd
127,P03,3,P03_recording.wav,1,4,25,127,Audio-Tactile,Inhale,nan,2700.0,soa_2700ms,blue,867.0,True,hit,Hit,observed,part1_wavblock4,reference_corrected_retained,64.5,wav_observed_reference_checked,excluded_incomplete,reference_checked_no_change,f,25,P03/Part1/P03_PPS_part1_4f.csv,Audio-Tactile,2700.0,blue,Inhale,nan,True,Viscereality,0.5,0.5,10.0,791.8523076923077,177.69559654993802,347.61331631746265,1236.0912990671527,False,False,preregistered_2p5sd
128,P03,3,P03_recording.wav,1,4,26,128,Baseline,Exhale,nan,,baseline,nan,740.0,True,hit,Baseline_Hit,observed,part1_wavblock4,reference_corrected_retained,64.5,wav_observed_reference_checked,excluded_incomplete,reference_checked_no_change,f,26,P03/Part1/P03_PPS_part1_4f.csv,Baseline,,nan,Exhale,nan,True,Viscereality,0.5,-0.5,,791.8523076923077,177.69559654993802,347.61331631746265,1236.0912990671527,False,False,preregistered_2p5sd
130,P03,3,P03_recording.wav,1,4,28,130,Audio-Tactile,Exhale,nan,1500.0,soa_1500ms,pink,807.0,True,hit,Hit,observed,part1_wavblock4,reference_corrected_retained,64.5,wav_observed_reference_checked,excluded_incomplete,reference_checked_no_change,f,28,P03/Part1/P03_PPS_part1_4f.csv,Audio-Tactile,1500.0,pink,Exhale,nan,True,Viscereality,0.5,-0.5,50.0,791.8523076923077,177.69559654993802,347.61331631746265,1236.0912990671527,False,False,preregistered_2p5sd
131,P03,3,P03_recording.wav,1,4,29,131,Baseline,Inhale,nan,,baseline,nan,804.0,True,hit,Baseline_Hit,observed,part1_wavblock4,reference_corrected_retained,64.5,reference_label_corrected_observed,excluded_incomplete;phase_source_interval_parity;soa_quantization_gt_25ms;reference_label_corrected,reference_label_corrected,f,29,P03/Part1/P03_PPS_part1_4f.csv,Audio-Tactile,2200.0,pink,Inhale,trial_type:Audio-Tactile->Baseline;SOA_ms:2200->;noise_type:pink->N/A,True,Viscereality,0.5,0.5,,791.8523076923077,177.69559654993802,347.61331631746265,1236.0912990671527,False,False,preregistered_2p5sd
135,P03,3,P03_recording.wav,1,4,33,135,Audio-Tactile,Inhale,nan,800.0,soa_800ms,blue,952.0,True,hit,Hit,observed,part1_wavblock4,reference_corrected_retained,64.5,wav_observed_reference_checked,excluded_incomplete,reference_checked_no_change,f,33,P03/Part1/P03_PPS_part1_4f.csv,Audio-Tactile,800.0,blue,Inhale,nan,True,Viscereality,0.5,0.5,73.0,791.8523076923077,177.69559654993802,347.61331631746265,1236.0912990671527,False,False,preregistered_2p5sd
136,P03,3,P03_recording.wav,1,4,34,136,Audio-Tactile,Exhale,nan,2200.0,soa_2200ms,pink,825.0,True,hit,Hit,observed,part1_wavblock4,reference_corrected_retained,64.5,wav_observed_reference_checked,excluded_incomplete,reference_checked_no_change,f,34,P03/Part1/P03_PPS_part1_4f.csv,Audio-Tactile,2200.0,pink,Exhale,nan,True,Viscereality,0.5,-0.5,27.0,791.8523076923077,177.69559654993802,347.61331631746265,1236.0912990671527,False,False,preregistered_2p5sd
137,P03,3,P03_recording.wav,1,5,1,137,Audio-Tactile,Inhale,nan,2700.0,soa_2700ms,blue,868.0,True,hit,Hit,observed,part1_wavblock5,reference_corrected_retained,99.984,wav_observed_reference_checked,nan,reference_checked_no_change,b,1,P03/Part1/P03_PPS_part1_5b.csv,Audio-Tactile,2700.0,blue,Inhale,nan,True,Viscereality,0.5,0.5,10.0,791.8523076923077,177.69559654993802,347.61331631746265,1236.0912990671527,False,False,preregistered_2p5sd
139,P03,3,P03_recording.wav,1,5,3,139,Baseline,Inhale,nan,,baseline,nan,739.0,True,hit,Baseline_Hit,observed,part1_wavblock5,reference_corrected_retained,99.984,wav_observed_reference_checked,nan,reference_checked_no_change,b,3,P03/Part1/P03_PPS_part1_5b.csv,Baseline,,nan,Inhale,nan,True,Viscereality,0.5,0.5,,791.8523076923077,177.69559654993802,347.61331631746265,1236.0912990671527,False,False,preregistered_2p5sd
141,P03,3,P03_recording.wav,1,5,5,141,Audio-Tactile,Inhale,nan,1500.0,soa_1500ms,brown,853.0,True,hit,Hit,observed,part1_wavblock5,reference_corrected_retained,99.984,wav_observed_reference_checked,nan,reference_checked_no_change,b,5,P03/Part1/P03_PPS_part1_5b.csv,Audio-Tactile,1500.0,brown,Inhale,nan,True,Viscereality,0.5,0.5,50.0,791.8523076923077,177.69559654993802,347.61331631746265,1236.0912990671527,False,False,preregistered_2p5sd
142,P03,3,P03_recording.wav,1,5,6,142,Baseline,Exhale,nan,,baseline,nan,764.0,True,hit,Baseline_Hit,observed,part1_wavblock5,reference_corrected_retained,99.984,wav_observed_reference_checked,nan,reference_checked_no_change,b,6,P03/Part1/P03_PPS_part1_5b.csv,Baseline,,nan,Exhale,nan,True,Viscereality,0.5,-0.5,,791.8523076923077,177.69559654993802,347.61331631746265,1236.0912990671527,False,False,preregistered_2p5sd
143,P03,3,P03_recording.wav,1,5,7,143,Baseline,Inhale,nan,,baseline,nan,728.0,True,hit,Baseline_Hit,observed,part1_wavblock5,reference_corrected_retained,99.984,wav_observed_reference_checked,nan,reference_checked_no_change,b,7,P03/Part1/P03_PPS_part1_5b.csv,Baseline,,nan,Inhale,nan,True,Viscereality,0.5,0.5,,791.8523076923077,177.69559654993802,347.61331631746265,1236.0912990671527,False,False,preregistered_2p5sd
144,P03,3,P03_recording.wav,1,5,8,144,Audio-Tactile,Exhale,nan,1500.0,soa_1500ms,pink,729.0,True,hit,Hit,observed,part1_wavblock5,reference_corrected_retained,99.984,wav_observed_reference_checked,nan,reference_checked_no_change,b,8,P03/Part1/P03_PPS_part1_5b.csv,Audio-Tactile,1500.0,pink,Exhale,nan,True,Viscereality,0.5,-0.5,50.0,791.8523076923077,177.69559654993802,347.61331631746265,1236.0912990671527,False,False,preregistered_2p5sd
145,P03,3,P03_recording.wav,1,5,9,145,Audio-Tactile,Inhale,nan,800.0,soa_800ms,brown,900.0,True,hit,Hit,observed,part1_wavblock5,reference_corrected_retained,99.984,wav_observed_reference_checked,nan,reference_checked_no_change,b,9,P03/Part1/P03_PPS_part1_5b.csv,Audio-Tactile,800.0,brown,Inhale,nan,True,Viscereality,0.5,0.5,73.0,791.8523076923077,177.69559654993802,347.61331631746265,1236.0912990671527,False,False,preregistered_2p5sd
146,P03,3,P03_recording.wav,1,5,10,146,Baseline,Exhale,nan,,baseline,nan,707.0,True,hit,Baseline_Hit,observed,part1_wavblock5,reference_corrected_retained,99.984,wav_observed_reference_checked,nan,reference_checked_no_change,b,10,P03/Part1/P03_PPS_part1_5b.csv,Baseline,,nan,Exhale,nan,True,Viscereality,0.5,-0.5,,791.8523076923077,177.69559654993802,347.61331631746265,1236.0912990671527,False,False,preregistered_2p5sd
147,P03,3,P03_recording.wav,1,5,11,147,Audio-Tactile,Inhale,nan,300.0,soa_300ms,brown,656.0,True,hit,Hit,observed,part1_wavblock5,reference_corrected_retained,99.984,wav_observed_reference_checked,nan,reference_checked_no_change,b,11,P03/Part1/P03_PPS_part1_5b.csv,Audio-Tactile,300.0,brown,Inhale,nan,True,Viscereality,0.5,0.5,100.0,791.8523076923077,177.69559654993802,347.61331631746265,1236.0912990671527,False,False,preregistered_2p5sd
148,P03,3,P03_recording.wav,1,5,12,148,Baseline,Exhale,nan,,baseline,nan,780.0,True,hit,Baseline_Hit,observed,part1_wavblock5,reference_corrected_retained,99.984,wav_observed_reference_checked,nan,reference_checked_no_change,b,12,P03/Part1/P03_PPS_part1_5b.csv,Baseline,,nan,Exhale,nan,True,Viscereality,0.5,-0.5,,791.8523076923077,177.69559654993802,347.61331631746265,1236.0912990671527,False,False,preregistered_2p5sd
150,P03,3,P03_recording.wav,1,5,14,150,Audio-Tactile,Exhale,nan,800.0,soa_800ms,pink,737.0,True,hit,Hit,observed,part1_wavblock5,reference_corrected_retained,99.984,wav_observed_reference_checked,nan,reference_checked_no_change,b,14,P03/Part1/P03_PPS_part1_5b.csv,Audio-Tactile,800.0,pink,Exhale,nan,True,Viscereality,0.5,-0.5,73.0,791.8523076923077,177.69559654993802,347.61331631746265,1236.0912990671527,False,False,preregistered_2p5sd
151,P03,3,P03_recording.wav,1,5,15,151,Audio-Tactile,Inhale,nan,800.0,soa_800ms,blue,835.0,True,hit,Hit,observed,part1_wavblock5,reference_corrected_retained,99.984,wav_observed_reference_checked,nan,reference_checked_no_change,b,15,P03/Part1/P03_PPS_part1_5b.csv,Audio-Tactile,800.0,blue,Inhale,nan,True,Viscereality,0.5,0.5,73.0,791.8523076923077,177.69559654993802,347.61331631746265,1236.0912990671527,False,False,preregistered_2p5sd
152,P03,3,P03_recording.wav,1,5,16,152,Audio-Tactile,Exhale,nan,800.0,soa_800ms,white,750.0,True,hit,Hit,observed,part1_wavblock5,reference_corrected_retained,99.984,wav_observed_reference_checked,nan,reference_checked_no_change,b,16,P03/Part1/P03_PPS_part1_5b.csv,Audio-Tactile,800.0,white,Exhale,nan,True,Viscereality,0.5,-0.5,73.0,791.8523076923077,177.69559654993802,347.61331631746265,1236.0912990671527,False,False,preregistered_2p5sd
153,P03,3,P03_recording.wav,1,5,17,153,Audio-Tactile,Inhale,nan,2200.0,soa_2200ms,blue,767.0,True,hit,Hit,observed,part1_wavblock5,reference_corrected_retained,99.984,wav_observed_reference_checked,nan,reference_checked_no_change,b,17,P03/Part1/P03_PPS_part1_5b.csv,Audio-Tactile,2200.0,blue,Inhale,nan,True,Viscereality,0.5,0.5,27.0,791.8523076923077,177.69559654993802,347.61331631746265,1236.0912990671527,False,False,preregistered_2p5sd
154,P03,3,P03_recording.wav,1,5,18,154,Audio-Tactile,Exhale,nan,300.0,soa_300ms,pink,688.0,True,hit,Hit,observed,part1_wavblock5,reference_corrected_retained,99.984,wav_observed_reference_checked,nan,reference_checked_no_change,b,18,P03/Part1/P03_PPS_part1_5b.csv,Audio-Tactile,300.0,pink,Exhale,nan,True,Viscereality,0.5,-0.5,100.0,791.8523076923077,177.69559654993802,347.61331631746265,1236.0912990671527,False,False,preregistered_2p5sd
155,P03,3,P03_recording.wav,1,5,19,155,Baseline,Inhale,nan,,baseline,nan,875.0,True,hit,Baseline_Hit,observed,part1_wavblock5,reference_corrected_retained,99.984,wav_observed_reference_checked,nan,reference_checked_no_change,b,19,P03/Part1/P03_PPS_part1_5b.csv,Baseline,,nan,Inhale,nan,True,Viscereality,0.5,0.5,,791.8523076923077,177.69559654993802,347.61331631746265,1236.0912990671527,False,False,preregistered_2p5sd
156,P03,3,P03_recording.wav,1,5,20,156,Baseline,Exhale,nan,,baseline,nan,666.0,True,hit,Baseline_Hit,observed,part1_wavblock5,reference_corrected_retained,99.984,wav_observed_reference_checked,nan,reference_checked_no_change,b,20,P03/Part1/P03_PPS_part1_5b.csv,Baseline,,nan,Exhale,nan,True,Viscereality,0.5,-0.5,,791.8523076923077,177.69559654993802,347.61331631746265,1236.0912990671527,False,False,preregistered_2p5sd
157,P03,3,P03_recording.wav,1,5,21,157,Baseline,Inhale,nan,,baseline,nan,956.0,True,hit,Baseline_Hit,observed,part1_wavblock5,reference_corrected_retained,99.984,wav_observed_reference_checked,nan,reference_checked_no_change,b,21,P03/Part1/P03_PPS_part1_5b.csv,Baseline,,nan,Inhale,nan,True,Viscereality,0.5,0.5,,791.8523076923077,177.69559654993802,347.61331631746265,1236.0912990671527,False,False,preregistered_2p5sd
161,P03,3,P03_recording.wav,1,5,25,161,Audio-Tactile,Inhale,nan,2200.0,soa_2200ms,brown,1211.0,True,hit,Hit,observed,part1_wavblock5,reference_corrected_retained,99.984,wav_observed_reference_checked,nan,reference_checked_no_change,b,25,P03/Part1/P03_PPS_part1_5b.csv,Audio-Tactile,2200.0,brown,Inhale,nan,True,Viscereality,0.5,0.5,27.0,791.8523076923077,177.69559654993802,347.61331631746265,1236.0912990671527,False,False,preregistered_2p5sd
162,P03,3,P03_recording.wav,1,5,26,162,Audio-Tactile,Exhale,nan,2700.0,soa_2700ms,pink,587.0,True,hit,Hit,observed,part1_wavblock5,reference_corrected_retained,99.984,wav_observed_reference_checked,nan,reference_checked_no_change,b,26,P03/Part1/P03_PPS_part1_5b.csv,Audio-Tactile,2700.0,pink,Exhale,nan,True,Viscereality,0.5,-0.5,10.0,791.8523076923077,177.69559654993802,347.61331631746265,1236.0912990671527,False,False,preregistered_2p5sd
163,P03,3,P03_recording.wav,1,5,27,163,Baseline,Inhale,nan,,baseline,nan,751.0,True,hit,Baseline_Hit,observed,part1_wavblock5,reference_corrected_retained,99.984,wav_observed_reference_checked,nan,reference_checked_no_change,b,27,P03/Part1/P03_PPS_part1_5b.csv,Baseline,,nan,Inhale,nan,True,Viscereality,0.5,0.5,,791.8523076923077,177.69559654993802,347.61331631746265,1236.0912990671527,False,False,preregistered_2p5sd
164,P03,3,P03_recording.wav,1,5,28,164,Audio-Tactile,Exhale,nan,1500.0,soa_1500ms,white,729.0,True,hit,Hit,observed,part1_wavblock5,reference_corrected_retained,99.984,wav_observed_reference_checked,nan,reference_checked_no_change,b,28,P03/Part1/P03_PPS_part1_5b.csv,Audio-Tactile,1500.0,white,Exhale,nan,True,Viscereality,0.5,-0.5,50.0,791.8523076923077,177.69559654993802,347.61331631746265,1236.0912990671527,False,False,preregistered_2p5sd
165,P03,3,P03_recording.wav,1,5,29,165,Audio-Tactile,Inhale,nan,1500.0,soa_1500ms,blue,905.0,True,hit,Hit,observed,part1_wavblock5,reference_corrected_retained,99.984,wav_observed_reference_checked,nan,reference_checked_no_change,b,29,P03/Part1/P03_PPS_part1_5b.csv,Audio-Tactile,1500.0,blue,Inhale,nan,True,Viscereality,0.5,0.5,50.0,791.8523076923077,177.69559654993802,347.61331631746265,1236.0912990671527,False,False,preregistered_2p5sd
166,P03,3,P03_recording.wav,1,5,30,166,Audio-Tactile,Exhale,nan,2200.0,soa_2200ms,white,734.0,True,hit,Hit,observed,part1_wavblock5,reference_corrected_retained,99.984,wav_observed_reference_checked,nan,reference_checked_no_change,b,30,P03/Part1/P03_PPS_part1_5b.csv,Audio-Tactile,2200.0,white,Exhale,nan,True,Viscereality,0.5,-0.5,27.0,791.8523076923077,177.69559654993802,347.61331631746265,1236.0912990671527,False,False,preregistered_2p5sd
167,P03,3,P03_recording.wav,1,5,31,167,Audio-Tactile,Inhale,nan,300.0,soa_300ms,blue,799.0,True,hit,Hit,observed,part1_wavblock5,reference_corrected_retained,99.984,wav_observed_reference_checked,nan,reference_checked_no_change,b,31,P03/Part1/P03_PPS_part1_5b.csv,Audio-Tactile,300.0,blue,Inhale,nan,True,Viscereality,0.5,0.5,100.0,791.8523076923077,177.69559654993802,347.61331631746265,1236.0912990671527,False,False,preregistered_2p5sd
168,P03,3,P03_recording.wav,1,5,32,168,Baseline,Exhale,nan,,baseline,nan,774.0,True,hit,Baseline_Hit,observed,part1_wavblock5,reference_corrected_retained,99.984,wav_observed_reference_checked,nan,reference_checked_no_change,b,32,P03/Part1/P03_PPS_part1_5b.csv,Baseline,,nan,Exhale,nan,True,Viscereality,0.5,-0.5,,791.8523076923077,177.69559654993802,347.61331631746265,1236.0912990671527,False,False,preregistered_2p5sd
169,P03,3,P03_recording.wav,1,5,33,169,Audio-Tactile,Inhale,nan,2700.0,soa_2700ms,brown,776.0,True,hit,Hit,observed,part1_wavblock5,reference_corrected_retained,99.984,wav_observed_reference_checked,nan,reference_checked_no_change,b,33,P03/Part1/P03_PPS_part1_5b.csv,Audio-Tactile,2700.0,brown,Inhale,nan,True,Viscereality,0.5,0.5,10.0,791.8523076923077,177.69559654993802,347.61331631746265,1236.0912990671527,False,False,preregistered_2p5sd
170,P03,3,P03_recording.wav,1,5,34,170,Audio-Tactile,Exhale,nan,300.0,soa_300ms,white,597.0,True,hit,Hit,observed,part1_wavblock5,reference_corrected_retained,99.984,wav_observed_reference_checked,nan,reference_checked_no_change,b,34,P03/Part1/P03_PPS_part1_5b.csv,Audio-Tactile,300.0,white,Exhale,nan,True,Viscereality,0.5,-0.5,100.0,791.8523076923077,177.69559654993802,347.61331631746265,1236.0912990671527,False,False,preregistered_2p5sd
172,P03,3,P03_recording.wav,1,6,2,172,Baseline,Exhale,nan,,baseline,nan,944.0,True,hit,Baseline_Hit,observed,part1_wavblock6,reference_corrected_retained,99.984,wav_observed_reference_checked,nan,reference_checked_no_change,e,2,P03/Part1/P03_PPS_part1_6e.csv,Baseline,,nan,Exhale,nan,True,Viscereality,0.5,-0.5,,791.8523076923077,177.69559654993802,347.61331631746265,1236.0912990671527,False,False,preregistered_2p5sd
173,P03,3,P03_recording.wav,1,6,3,173,Audio-Tactile,Inhale,nan,800.0,soa_800ms,pink,721.0,True,hit,Hit,observed,part1_wavblock6,reference_corrected_retained,99.984,wav_observed_reference_checked,nan,reference_checked_no_change,e,3,P03/Part1/P03_PPS_part1_6e.csv,Audio-Tactile,800.0,pink,Inhale,nan,True,Viscereality,0.5,0.5,73.0,791.8523076923077,177.69559654993802,347.61331631746265,1236.0912990671527,False,False,preregistered_2p5sd
174,P03,3,P03_recording.wav,1,6,4,174,Audio-Tactile,Exhale,nan,2700.0,soa_2700ms,brown,917.0,True,hit,Hit,observed,part1_wavblock6,reference_corrected_retained,99.984,wav_observed_reference_checked,nan,reference_checked_no_change,e,4,P03/Part1/P03_PPS_part1_6e.csv,Audio-Tactile,2700.0,brown,Exhale,nan,True,Viscereality,0.5,-0.5,10.0,791.8523076923077,177.69559654993802,347.61331631746265,1236.0912990671527,False,False,preregistered_2p5sd
175,P03,3,P03_recording.wav,1,6,5,175,Audio-Tactile,Inhale,nan,300.0,soa_300ms,pink,568.0,True,hit,Hit,observed,part1_wavblock6,reference_corrected_retained,99.984,wav_observed_reference_checked,nan,reference_checked_no_change,e,5,P03/Part1/P03_PPS_part1_6e.csv,Audio-Tactile,300.0,pink,Inhale,nan,True,Viscereality,0.5,0.5,100.0,791.8523076923077,177.69559654993802,347.61331631746265,1236.0912990671527,False,False,preregistered_2p5sd
176,P03,3,P03_recording.wav,1,6,6,176,Audio-Tactile,Exhale,nan,1500.0,soa_1500ms,brown,628.0,True,hit,Hit,observed,part1_wavblock6,reference_corrected_retained,99.984,wav_observed_reference_checked,nan,reference_checked_no_change,e,6,P03/Part1/P03_PPS_part1_6e.csv,Audio-Tactile,1500.0,brown,Exhale,nan,True,Viscereality,0.5,-0.5,50.0,791.8523076923077,177.69559654993802,347.61331631746265,1236.0912990671527,False,False,preregistered_2p5sd
177,P03,3,P03_recording.wav,1,6,7,177,Baseline,Inhale,nan,,baseline,nan,741.0,True,hit,Baseline_Hit,observed,part1_wavblock6,reference_corrected_retained,99.984,wav_observed_reference_checked,nan,reference_checked_no_change,e,7,P03/Part1/P03_PPS_part1_6e.csv,Baseline,,nan,Inhale,nan,True,Viscereality,0.5,0.5,,791.8523076923077,177.69559654993802,347.61331631746265,1236.0912990671527,False,False,preregistered_2p5sd
178,P03,3,P03_recording.wav,1,6,8,178,Baseline,Exhale,nan,,baseline,nan,854.0,True,hit,Baseline_Hit,observed,part1_wavblock6,reference_corrected_retained,99.984,wav_observed_reference_checked,nan,reference_checked_no_change,e,8,P03/Part1/P03_PPS_part1_6e.csv,Baseline,,nan,Exhale,nan,True,Viscereality,0.5,-0.5,,791.8523076923077,177.69559654993802,347.61331631746265,1236.0912990671527,False,False,preregistered_2p5sd
179,P03,3,P03_recording.wav,1,6,9,179,Audio-Tactile,Inhale,nan,2200.0,soa_2200ms,white,745.0,True,hit,Hit,observed,part1_wavblock6,reference_corrected_retained,99.984,wav_observed_reference_checked,nan,reference_checked_no_change,e,9,P03/Part1/P03_PPS_part1_6e.csv,Audio-Tactile,2200.0,white,Inhale,nan,True,Viscereality,0.5,0.5,27.0,791.8523076923077,177.69559654993802,347.61331631746265,1236.0912990671527,False,False,preregistered_2p5sd
181,P03,3,P03_recording.wav,1,6,11,181,Baseline,Inhale,nan,,baseline,nan,967.0,True,hit,Baseline_Hit,observed,part1_wavblock6,reference_corrected_retained,99.984,wav_observed_reference_checked,nan,reference_checked_no_change,e,11,P03/Part1/P03_PPS_part1_6e.csv,Baseline,,nan,Inhale,nan,True,Viscereality,0.5,0.5,,791.8523076923077,177.69559654993802,347.61331631746265,1236.0912990671527,False,False,preregistered_2p5sd
182,P03,3,P03_recording.wav,1,6,12,182,Audio-Tactile,Exhale,nan,300.0,soa_300ms,brown,744.0,True,hit,Hit,observed,part1_wavblock6,reference_corrected_retained,99.984,wav_observed_reference_checked,nan,reference_checked_no_change,e,12,P03/Part1/P03_PPS_part1_6e.csv,Audio-Tactile,300.0,brown,Exhale,nan,True,Viscereality,0.5,-0.5,100.0,791.8523076923077,177.69559654993802,347.61331631746265,1236.0912990671527,False,False,preregistered_2p5sd
185,P03,3,P03_recording.wav,1,6,15,185,Audio-Tactile,Inhale,nan,2700.0,soa_2700ms,white,937.0,True,hit,Hit,observed,part1_wavblock6,reference_corrected_retained,99.984,wav_observed_reference_checked,nan,reference_checked_no_change,e,15,P03/Part1/P03_PPS_part1_6e.csv,Audio-Tactile,2700.0,white,Inhale,nan,True,Viscereality,0.5,0.5,10.0,791.8523076923077,177.69559654993802,347.61331631746265,1236.0912990671527,False,False,preregistered_2p5sd
188,P03,3,P03_recording.wav,1,6,18,188,Baseline,Exhale,nan,,baseline,nan,885.0,True,hit,Baseline_Hit,observed,part1_wavblock6,reference_corrected_retained,99.984,wav_observed_reference_checked,nan,reference_checked_no_change,e,18,P03/Part1/P03_PPS_part1_6e.csv,Baseline,,nan,Exhale,nan,True,Viscereality,0.5,-0.5,,791.8523076923077,177.69559654993802,347.61331631746265,1236.0912990671527,False,False,preregistered_2p5sd
191,P03,3,P03_recording.wav,1,6,21,191,Audio-Tactile,Inhale,nan,300.0,soa_300ms,white,790.0,True,hit,Hit,observed,part1_wavblock6,reference_corrected_retained,99.984,wav_observed_reference_checked,nan,reference_checked_no_change,e,21,P03/Part1/P03_PPS_part1_6e.csv,Audio-Tactile,300.0,white,Inhale,nan,True,Viscereality,0.5,0.5,100.0,791.8523076923077,177.69559654993802,347.61331631746265,1236.0912990671527,False,False,preregistered_2p5sd
192,P03,3,P03_recording.wav,1,6,22,192,Audio-Tactile,Exhale,nan,300.0,soa_300ms,blue,679.0,True,hit,Hit,observed,part1_wavblock6,reference_corrected_retained,99.984,wav_observed_reference_checked,nan,reference_checked_no_change,e,22,P03/Part1/P03_PPS_part1_6e.csv,Audio-Tactile,300.0,blue,Exhale,nan,True,Viscereality,0.5,-0.5,100.0,791.8523076923077,177.69559654993802,347.61331631746265,1236.0912990671527,False,False,preregistered_2p5sd
198,P03,3,P03_recording.wav,1,6,28,198,Audio-Tactile,Exhale,nan,2200.0,soa_2200ms,brown,895.0,True,hit,Hit,observed,part1_wavblock6,reference_corrected_retained,99.984,wav_observed_reference_checked,nan,reference_checked_no_change,e,28,P03/Part1/P03_PPS_part1_6e.csv,Audio-Tactile,2200.0,brown,Exhale,nan,True,Viscereality,0.5,-0.5,27.0,791.8523076923077,177.69559654993802,347.61331631746265,1236.0912990671527,False,False,preregistered_2p5sd
202,P03,3,P03_recording.wav,1,6,32,202,Baseline,Exhale,nan,,baseline,nan,777.0,True,hit,Baseline_Hit,observed,part1_wavblock6,reference_corrected_retained,99.984,wav_observed_reference_checked,nan,reference_checked_no_change,e,32,P03/Part1/P03_PPS_part1_6e.csv,Baseline,,nan,Exhale,nan,True,Viscereality,0.5,-0.5,,791.8523076923077,177.69559654993802,347.61331631746265,1236.0912990671527,False,False,preregistered_2p5sd
203,P03,3,P03_recording.wav,1,6,33,203,Baseline,Inhale,nan,,baseline,nan,730.0,True,hit,Baseline_Hit,observed,part1_wavblock6,reference_corrected_retained,99.984,wav_observed_reference_checked,nan,reference_checked_no_change,e,33,P03/Part1/P03_PPS_part1_6e.csv,Baseline,,nan,Inhale,nan,True,Viscereality,0.5,0.5,,791.8523076923077,177.69559654993802,347.61331631746265,1236.0912990671527,False,False,preregistered_2p5sd
204,P03,3,P03_recording.wav,1,6,34,204,Baseline,Exhale,nan,,baseline,nan,757.0,True,hit,Baseline_Hit,observed,part1_wavblock6,reference_corrected_retained,99.984,wav_observed_reference_checked,nan,reference_checked_no_change,e,34,P03/Part1/P03_PPS_part1_6e.csv,Baseline,,nan,Exhale,nan,True,Viscereality,0.5,-0.5,,791.8523076923077,177.69559654993802,347.61331631746265,1236.0912990671527,False,False,preregistered_2p5sd
205,P03,3,P03_recording.wav,2,1,1,205,Audio-Tactile,Inhale,nan,2700.0,soa_2700ms,blue,1046.0,True,hit,Hit,observed,part2_wavblock1,reference_corrected_retained,99.984,wav_observed_reference_checked,nan,reference_checked_no_change,b,1,P03/Part2/P03_PPS_part2_1b.csv,Audio-Tactile,2700.0,blue,Inhale,nan,True,Control,-0.5,0.5,10.0,791.8523076923077,177.69559654993802,347.61331631746265,1236.0912990671527,False,False,preregistered_2p5sd
206,P03,3,P03_recording.wav,2,1,2,206,Audio-Tactile,Exhale,nan,2700.0,soa_2700ms,white,804.0,True,hit,Hit,observed,part2_wavblock1,reference_corrected_retained,99.984,wav_observed_reference_checked,nan,reference_checked_no_change,b,2,P03/Part2/P03_PPS_part2_1b.csv,Audio-Tactile,2700.0,white,Exhale,nan,True,Control,-0.5,-0.5,10.0,791.8523076923077,177.69559654993802,347.61331631746265,1236.0912990671527,False,False,preregistered_2p5sd
207,P03,3,P03_recording.wav,2,1,3,207,Baseline,Inhale,nan,,baseline,nan,917.0,True,hit,Baseline_Hit,observed,part2_wavblock1,reference_corrected_retained,99.984,wav_observed_reference_checked,nan,reference_checked_no_change,b,3,P03/Part2/P03_PPS_part2_1b.csv,Baseline,,nan,Inhale,nan,True,Control,-0.5,0.5,,791.8523076923077,177.69559654993802,347.61331631746265,1236.0912990671527,False,False,preregistered_2p5sd
209,P03,3,P03_recording.wav,2,1,5,209,Audio-Tactile,Inhale,nan,1500.0,soa_1500ms,brown,940.0,True,hit,Hit,observed,part2_wavblock1,reference_corrected_retained,99.984,wav_observed_reference_checked,nan,reference_checked_no_change,b,5,P03/Part2/P03_PPS_part2_1b.csv,Audio-Tactile,1500.0,brown,Inhale,nan,True,Control,-0.5,0.5,50.0,791.8523076923077,177.69559654993802,347.61331631746265,1236.0912990671527,False,False,preregistered_2p5sd
210,P03,3,P03_recording.wav,2,1,6,210,Baseline,Exhale,nan,,baseline,nan,772.0,True,hit,Baseline_Hit,observed,part2_wavblock1,reference_corrected_retained,99.984,wav_observed_reference_checked,nan,reference_checked_no_change,b,6,P03/Part2/P03_PPS_part2_1b.csv,Baseline,,nan,Exhale,nan,True,Control,-0.5,-0.5,,791.8523076923077,177.69559654993802,347.61331631746265,1236.0912990671527,False,False,preregistered_2p5sd
212,P03,3,P03_recording.wav,2,1,8,212,Audio-Tactile,Exhale,nan,1500.0,soa_1500ms,pink,868.0,True,hit,Hit,observed,part2_wavblock1,reference_corrected_retained,99.984,wav_observed_reference_checked,nan,reference_checked_no_change,b,8,P03/Part2/P03_PPS_part2_1b.csv,Audio-Tactile,1500.0,pink,Exhale,nan,True,Control,-0.5,-0.5,50.0,791.8523076923077,177.69559654993802,347.61331631746265,1236.0912990671527,False,False,preregistered_2p5sd
213,P03,3,P03_recording.wav,2,1,9,213,Audio-Tactile,Inhale,nan,800.0,soa_800ms,brown,660.0,True,hit,Hit,observed,part2_wavblock1,reference_corrected_retained,99.984,wav_observed_reference_checked,nan,reference_checked_no_change,b,9,P03/Part2/P03_PPS_part2_1b.csv,Audio-Tactile,800.0,brown,Inhale,nan,True,Control,-0.5,0.5,73.0,791.8523076923077,177.69559654993802,347.61331631746265,1236.0912990671527,False,False,preregistered_2p5sd
214,P03,3,P03_recording.wav,2,1,10,214,Baseline,Exhale,nan,,baseline,nan,780.0,True,hit,Baseline_Hit,observed,part2_wavblock1,reference_corrected_retained,99.984,wav_observed_reference_checked,nan,reference_checked_no_change,b,10,P03/Part2/P03_PPS_part2_1b.csv,Baseline,,nan,Exhale,nan,True,Control,-0.5,-0.5,,791.8523076923077,177.69559654993802,347.61331631746265,1236.0912990671527,False,False,preregistered_2p5sd
215,P03,3,P03_recording.wav,2,1,11,215,Audio-Tactile,Inhale,nan,300.0,soa_300ms,brown,768.0,True,hit,Hit,observed,part2_wavblock1,reference_corrected_retained,99.984,wav_observed_reference_checked,nan,reference_checked_no_change,b,11,P03/Part2/P03_PPS_part2_1b.csv,Audio-Tactile,300.0,brown,Inhale,nan,True,Control,-0.5,0.5,100.0,791.8523076923077,177.69559654993802,347.61331631746265,1236.0912990671527,False,False,preregistered_2p5sd
218,P03,3,P03_recording.wav,2,1,14,218,Audio-Tactile,Exhale,nan,800.0,soa_800ms,pink,836.0,True,hit,Hit,observed,part2_wavblock1,reference_corrected_retained,99.984,wav_observed_reference_checked,nan,reference_checked_no_change,b,14,P03/Part2/P03_PPS_part2_1b.csv,Audio-Tactile,800.0,pink,Exhale,nan,True,Control,-0.5,-0.5,73.0,791.8523076923077,177.69559654993802,347.61331631746265,1236.0912990671527,False,False,preregistered_2p5sd
219,P03,3,P03_recording.wav,2,1,15,219,Audio-Tactile,Inhale,nan,800.0,soa_800ms,blue,712.0,True,hit,Hit,observed,part2_wavblock1,reference_corrected_retained,99.984,wav_observed_reference_checked,nan,reference_checked_no_change,b,15,P03/Part2/P03_PPS_part2_1b.csv,Audio-Tactile,800.0,blue,Inhale,nan,True,Control,-0.5,0.5,73.0,791.8523076923077,177.69559654993802,347.61331631746265,1236.0912990671527,False,False,preregistered_2p5sd
221,P03,3,P03_recording.wav,2,1,17,221,Audio-Tactile,Inhale,nan,2200.0,soa_2200ms,blue,697.0,True,hit,Hit,observed,part2_wavblock1,reference_corrected_retained,99.984,wav_observed_reference_checked,nan,reference_checked_no_change,b,17,P03/Part2/P03_PPS_part2_1b.csv,Audio-Tactile,2200.0,blue,Inhale,nan,True,Control,-0.5,0.5,27.0,791.8523076923077,177.69559654993802,347.61331631746265,1236.0912990671527,False,False,preregistered_2p5sd
222,P03,3,P03_recording.wav,2,1,18,222,Audio-Tactile,Exhale,nan,300.0,soa_300ms,pink,644.0,True,hit,Hit,observed,part2_wavblock1,reference_corrected_retained,99.984,wav_observed_reference_checked,nan,reference_checked_no_change,b,18,P03/Part2/P03_PPS_part2_1b.csv,Audio-Tactile,300.0,pink,Exhale,nan,True,Control,-0.5,-0.5,100.0,791.8523076923077,177.69559654993802,347.61331631746265,1236.0912990671527,False,False,preregistered_2p5sd
223,P03,3,P03_recording.wav,2,1,19,223,Baseline,Inhale,nan,,baseline,nan,844.0,True,hit,Baseline_Hit,observed,part2_wavblock1,reference_corrected_retained,99.984,wav_observed_reference_checked,nan,reference_checked_no_change,b,19,P03/Part2/P03_PPS_part2_1b.csv,Baseline,,nan,Inhale,nan,True,Control,-0.5,0.5,,791.8523076923077,177.69559654993802,347.61331631746265,1236.0912990671527,False,False,preregistered_2p5sd
224,P03,3,P03_recording.wav,2,1,20,224,Baseline,Exhale,nan,,baseline,nan,818.0,True,hit,Baseline_Hit,observed,part2_wavblock1,reference_corrected_retained,99.984,wav_observed_reference_checked,nan,reference_checked_no_change,b,20,P03/Part2/P03_PPS_part2_1b.csv,Baseline,,nan,Exhale,nan,True,Control,-0.5,-0.5,,791.8523076923077,177.69559654993802,347.61331631746265,1236.0912990671527,False,False,preregistered_2p5sd
225,P03,3,P03_recording.wav,2,1,21,225,Baseline,Inhale,nan,,baseline,nan,716.0,True,hit,Baseline_Hit,observed,part2_wavblock1,reference_corrected_retained,99.984,wav_observed_reference_checked,nan,reference_checked_no_change,b,21,P03/Part2/P03_PPS_part2_1b.csv,Baseline,,nan,Inhale,nan,True,Control,-0.5,0.5,,791.8523076923077,177.69559654993802,347.61331631746265,1236.0912990671527,False,False,preregistered_2p5sd
229,P03,3,P03_recording.wav,2,1,25,229,Audio-Tactile,Inhale,nan,2200.0,soa_2200ms,brown,1036.0,True,hit,Hit,observed,part2_wavblock1,reference_corrected_retained,99.984,wav_observed_reference_checked,nan,reference_checked_no_change,b,25,P03/Part2/P03_PPS_part2_1b.csv,Audio-Tactile,2200.0,brown,Inhale,nan,True,Control,-0.5,0.5,27.0,791.8523076923077,177.69559654993802,347.61331631746265,1236.0912990671527,False,False,preregistered_2p5sd
230,P03,3,P03_recording.wav,2,1,26,230,Audio-Tactile,Exhale,nan,2700.0,soa_2700ms,pink,726.0,True,hit,Hit,observed,part2_wavblock1,reference_corrected_retained,99.984,wav_observed_reference_checked,nan,reference_checked_no_change,b,26,P03/Part2/P03_PPS_part2_1b.csv,Audio-Tactile,2700.0,pink,Exhale,nan,True,Control,-0.5,-0.5,10.0,791.8523076923077,177.69559654993802,347.61331631746265,1236.0912990671527,False,False,preregistered_2p5sd
231,P03,3,P03_recording.wav,2,1,27,231,Baseline,Inhale,nan,,baseline,nan,654.0,True,hit,Baseline_Hit,observed,part2_wavblock1,reference_corrected_retained,99.984,wav_observed_reference_checked,nan,reference_checked_no_change,b,27,P03/Part2/P03_PPS_part2_1b.csv,Baseline,,nan,Inhale,nan,True,Control,-0.5,0.5,,791.8523076923077,177.69559654993802,347.61331631746265,1236.0912990671527,False,False,preregistered_2p5sd
232,P03,3,P03_recording.wav,2,1,28,232,Audio-Tactile,Exhale,nan,1500.0,soa_1500ms,white,685.0,True,hit,Hit,observed,part2_wavblock1,reference_corrected_retained,99.984,wav_observed_reference_checked,nan,reference_checked_no_change,b,28,P03/Part2/P03_PPS_part2_1b.csv,Audio-Tactile,1500.0,white,Exhale,nan,True,Control,-0.5,-0.5,50.0,791.8523076923077,177.69559654993802,347.61331631746265,1236.0912990671527,False,False,preregistered_2p5sd
233,P03,3,P03_recording.wav,2,1,29,233,Audio-Tactile,Inhale,nan,1500.0,soa_1500ms,blue,731.0,True,hit,Hit,observed,part2_wavblock1,reference_corrected_retained,99.984,wav_observed_reference_checked,nan,reference_checked_no_change,b,29,P03/Part2/P03_PPS_part2_1b.csv,Audio-Tactile,1500.0,blue,Inhale,nan,True,Control,-0.5,0.5,50.0,791.8523076923077,177.69559654993802,347.61331631746265,1236.0912990671527,False,False,preregistered_2p5sd
235,P03,3,P03_recording.wav,2,1,31,235,Audio-Tactile,Inhale,nan,300.0,soa_300ms,blue,1173.0,True,hit,Hit,observed,part2_wavblock1,reference_corrected_retained,99.984,wav_observed_reference_checked,nan,reference_checked_no_change,b,31,P03/Part2/P03_PPS_part2_1b.csv,Audio-Tactile,300.0,blue,Inhale,nan,True,Control,-0.5,0.5,100.0,791.8523076923077,177.69559654993802,347.61331631746265,1236.0912990671527,False,False,preregistered_2p5sd
236,P03,3,P03_recording.wav,2,1,32,236,Baseline,Exhale,nan,,baseline,nan,795.0,True,hit,Baseline_Hit,observed,part2_wavblock1,reference_corrected_retained,99.984,wav_observed_reference_checked,nan,reference_checked_no_change,b,32,P03/Part2/P03_PPS_part2_1b.csv,Baseline,,nan,Exhale,nan,True,Control,-0.5,-0.5,,791.8523076923077,177.69559654993802,347.61331631746265,1236.0912990671527,False,False,preregistered_2p5sd
237,P03,3,P03_recording.wav,2,1,33,237,Audio-Tactile,Inhale,nan,2700.0,soa_2700ms,brown,863.0,True,hit,Hit,observed,part2_wavblock1,reference_corrected_retained,99.984,wav_observed_reference_checked,nan,reference_checked_no_change,b,33,P03/Part2/P03_PPS_part2_1b.csv,Audio-Tactile,2700.0,brown,Inhale,nan,True,Control,-0.5,0.5,10.0,791.8523076923077,177.69559654993802,347.61331631746265,1236.0912990671527,False,False,preregistered_2p5sd
238,P03,3,P03_recording.wav,2,1,34,238,Audio-Tactile,Exhale,nan,300.0,soa_300ms,white,709.0,True,hit,Hit,observed,part2_wavblock1,reference_corrected_retained,99.984,wav_observed_reference_checked,nan,reference_checked_no_change,b,34,P03/Part2/P03_PPS_part2_1b.csv,Audio-Tactile,300.0,white,Exhale,nan,True,Control,-0.5,-0.5,100.0,791.8523076923077,177.69559654993802,347.61331631746265,1236.0912990671527,False,False,preregistered_2p5sd
239,P03,3,P03_recording.wav,2,2,1,239,Audio-Tactile,Inhale,nan,2200.0,soa_2200ms,blue,686.0,True,hit,Hit,observed,part2_wavblock2,reference_corrected_retained,64.364,wav_observed_reference_checked,excluded_incomplete,reference_checked_no_change,f,1,P03/Part2/P03_PPS_part2_2f.csv,Audio-Tactile,2200.0,blue,Inhale,nan,True,Control,-0.5,0.5,27.0,791.8523076923077,177.69559654993802,347.61331631746265,1236.0912990671527,False,False,preregistered_2p5sd
240,P03,3,P03_recording.wav,2,2,2,240,Audio-Tactile,Exhale,nan,2700.0,soa_2700ms,pink,702.0,True,hit,Hit,observed,part2_wavblock2,reference_corrected_retained,64.364,wav_observed_reference_checked,excluded_incomplete,reference_checked_no_change,f,2,P03/Part2/P03_PPS_part2_2f.csv,Audio-Tactile,2700.0,pink,Exhale,nan,True,Control,-0.5,-0.5,10.0,791.8523076923077,177.69559654993802,347.61331631746265,1236.0912990671527,False,False,preregistered_2p5sd
241,P03,3,P03_recording.wav,2,2,3,241,Baseline,Inhale,nan,,baseline,nan,690.0,True,hit,Baseline_Hit,observed,part2_wavblock2,reference_corrected_retained,64.364,wav_observed_reference_checked,excluded_incomplete,reference_checked_no_change,f,3,P03/Part2/P03_PPS_part2_2f.csv,Baseline,,nan,Inhale,nan,True,Control,-0.5,0.5,,791.8523076923077,177.69559654993802,347.61331631746265,1236.0912990671527,False,False,preregistered_2p5sd
242,P03,3,P03_recording.wav,2,2,4,242,Audio-Tactile,Exhale,nan,800.0,soa_800ms,pink,865.0,True,hit,Hit,observed,part2_wavblock2,reference_corrected_retained,64.364,wav_observed_reference_checked,excluded_incomplete,reference_checked_no_change,f,4,P03/Part2/P03_PPS_part2_2f.csv,Audio-Tactile,800.0,pink,Exhale,nan,True,Control,-0.5,-0.5,73.0,791.8523076923077,177.69559654993802,347.61331631746265,1236.0912990671527,False,False,preregistered_2p5sd
243,P03,3,P03_recording.wav,2,2,5,243,Audio-Tactile,Inhale,nan,1500.0,soa_1500ms,brown,694.0,True,hit,Hit,observed,part2_wavblock2,reference_corrected_retained,64.364,wav_observed_reference_checked,excluded_incomplete,reference_checked_no_change,f,5,P03/Part2/P03_PPS_part2_2f.csv,Audio-Tactile,1500.0,brown,Inhale,nan,True,Control,-0.5,0.5,50.0,791.8523076923077,177.69559654993802,347.61331631746265,1236.0912990671527,False,False,preregistered_2p5sd
244,P03,3,P03_recording.wav,2,2,6,244,Baseline,Exhale,nan,,baseline,nan,1016.0,True,hit,Baseline_Hit,observed,part2_wavblock2,reference_corrected_retained,64.364,wav_observed_reference_checked,excluded_incomplete,reference_checked_no_change,f,6,P03/Part2/P03_PPS_part2_2f.csv,Baseline,,nan,Exhale,nan,True,Control,-0.5,-0.5,,791.8523076923077,177.69559654993802,347.61331631746265,1236.0912990671527,False,False,preregistered_2p5sd
245,P03,3,P03_recording.wav,2,2,7,245,Audio-Tactile,Inhale,nan,2700.0,soa_2700ms,brown,656.0,True,hit,Hit,observed,part2_wavblock2,reference_corrected_retained,64.364,wav_observed_reference_checked,excluded_incomplete,reference_checked_no_change,f,7,P03/Part2/P03_PPS_part2_2f.csv,Audio-Tactile,2700.0,brown,Inhale,nan,True,Control,-0.5,0.5,10.0,791.8523076923077,177.69559654993802,347.61331631746265,1236.0912990671527,False,False,preregistered_2p5sd
246,P03,3,P03_recording.wav,2,2,8,246,Baseline,Exhale,nan,,baseline,nan,722.0,True,hit,Baseline_Hit,observed,part2_wavblock2,reference_corrected_retained,64.364,wav_observed_reference_checked,excluded_incomplete,reference_checked_no_change,f,8,P03/Part2/P03_PPS_part2_2f.csv,Baseline,,nan,Exhale,nan,True,Control,-0.5,-0.5,,791.8523076923077,177.69559654993802,347.61331631746265,1236.0912990671527,False,False,preregistered_2p5sd
247,P03,3,P03_recording.wav,2,2,9,247,Audio-Tactile,Inhale,nan,800.0,soa_800ms,brown,662.0,True,hit,Hit,observed,part2_wavblock2,reference_corrected_retained,64.364,wav_observed_reference_checked,excluded_incomplete,reference_checked_no_change,f,9,P03/Part2/P03_PPS_part2_2f.csv,Audio-Tactile,800.0,brown,Inhale,nan,True,Control,-0.5,0.5,73.0,791.8523076923077,177.69559654993802,347.61331631746265,1236.0912990671527,False,False,preregistered_2p5sd
248,P03,3,P03_recording.wav,2,2,10,248,Audio-Tactile,Exhale,nan,2700.0,soa_2700ms,white,676.0,True,hit,Hit,observed,part2_wavblock2,reference_corrected_retained,64.364,wav_observed_reference_checked,excluded_incomplete,reference_checked_no_change,f,10,P03/Part2/P03_PPS_part2_2f.csv,Audio-Tactile,2700.0,white,Exhale,nan,True,Control,-0.5,-0.5,10.0,791.8523076923077,177.69559654993802,347.61331631746265,1236.0912990671527,False,False,preregistered_2p5sd
250,P03,3,P03_recording.wav,2,2,12,250,Baseline,Exhale,nan,,baseline,nan,704.0,True,hit,Baseline_Hit,observed,part2_wavblock2,reference_corrected_retained,64.364,wav_observed_reference_checked,excluded_incomplete,reference_checked_no_change,f,12,P03/Part2/P03_PPS_part2_2f.csv,Baseline,,nan,Exhale,nan,True,Control,-0.5,-0.5,,791.8523076923077,177.69559654993802,347.61331631746265,1236.0912990671527,False,False,preregistered_2p5sd
251,P03,3,P03_recording.wav,2,2,13,251,Audio-Tactile,Inhale,nan,1500.0,soa_1500ms,blue,785.0,True,hit,Hit,observed,part2_wavblock2,reference_corrected_retained,64.364,wav_observed_reference_checked,excluded_incomplete,reference_checked_no_change,f,13,P03/Part2/P03_PPS_part2_2f.csv,Audio-Tactile,1500.0,blue,Inhale,nan,True,Control,-0.5,0.5,50.0,791.8523076923077,177.69559654993802,347.61331631746265,1236.0912990671527,False,False,preregistered_2p5sd
253,P03,3,P03_recording.wav,2,2,15,253,Audio-Tactile,Inhale,nan,300.0,soa_300ms,blue,666.0,True,hit,Hit,observed,part2_wavblock2,reference_corrected_retained,64.364,wav_observed_reference_checked,excluded_incomplete,reference_checked_no_change,f,15,P03/Part2/P03_PPS_part2_2f.csv,Audio-Tactile,300.0,blue,Inhale,nan,True,Control,-0.5,0.5,100.0,791.8523076923077,177.69559654993802,347.61331631746265,1236.0912990671527,False,False,preregistered_2p5sd
254,P03,3,P03_recording.wav,2,2,16,254,Audio-Tactile,Exhale,nan,800.0,soa_800ms,white,786.0,True,hit,Hit,observed,part2_wavblock2,reference_corrected_retained,64.364,wav_observed_reference_checked,excluded_incomplete,reference_checked_no_change,f,16,P03/Part2/P03_PPS_part2_2f.csv,Audio-Tactile,800.0,white,Exhale,nan,True,Control,-0.5,-0.5,73.0,791.8523076923077,177.69559654993802,347.61331631746265,1236.0912990671527,False,False,preregistered_2p5sd
255,P03,3,P03_recording.wav,2,2,17,255,Audio-Tactile,Inhale,nan,2200.0,soa_2200ms,brown,712.0,True,hit,Hit,observed,part2_wavblock2,reference_corrected_retained,64.364,wav_observed_reference_checked,excluded_incomplete,reference_checked_no_change,f,17,P03/Part2/P03_PPS_part2_2f.csv,Audio-Tactile,2200.0,brown,Inhale,nan,True,Control,-0.5,0.5,27.0,791.8523076923077,177.69559654993802,347.61331631746265,1236.0912990671527,False,False,preregistered_2p5sd
259,P03,3,P03_recording.wav,2,2,21,259,Baseline,Inhale,nan,,baseline,nan,842.0,True,hit,Baseline_Hit,observed,part2_wavblock2,reference_corrected_retained,64.364,wav_observed_reference_checked,excluded_incomplete;phase_source_interval_parity,reference_checked_no_change,f,21,P03/Part2/P03_PPS_part2_2f.csv,Baseline,,nan,Inhale,nan,True,Control,-0.5,0.5,,791.8523076923077,177.69559654993802,347.61331631746265,1236.0912990671527,False,False,preregistered_2p5sd
260,P03,3,P03_recording.wav,2,2,22,260,Audio-Tactile,Exhale,nan,1500.0,soa_1500ms,white,899.0,True,hit,Hit,observed,part2_wavblock2,reference_corrected_retained,64.364,wav_observed_reference_checked,excluded_incomplete,reference_checked_no_change,f,22,P03/Part2/P03_PPS_part2_2f.csv,Audio-Tactile,1500.0,white,Exhale,nan,True,Control,-0.5,-0.5,50.0,791.8523076923077,177.69559654993802,347.61331631746265,1236.0912990671527,False,False,preregistered_2p5sd
262,P03,3,P03_recording.wav,2,2,24,262,Audio-Tactile,Exhale,nan,300.0,soa_300ms,pink,754.0,True,hit,Hit,observed,part2_wavblock2,reference_corrected_retained,64.364,wav_observed_reference_checked,excluded_incomplete,reference_checked_no_change,f,24,P03/Part2/P03_PPS_part2_2f.csv,Audio-Tactile,300.0,pink,Exhale,nan,True,Control,-0.5,-0.5,100.0,791.8523076923077,177.69559654993802,347.61331631746265,1236.0912990671527,False,False,preregistered_2p5sd
263,P03,3,P03_recording.wav,2,2,25,263,Audio-Tactile,Inhale,nan,2700.0,soa_2700ms,blue,607.0,True,hit,Hit,observed,part2_wavblock2,reference_corrected_retained,64.364,wav_observed_reference_checked,excluded_incomplete,reference_checked_no_change,f,25,P03/Part2/P03_PPS_part2_2f.csv,Audio-Tactile,2700.0,blue,Inhale,nan,True,Control,-0.5,0.5,10.0,791.8523076923077,177.69559654993802,347.61331631746265,1236.0912990671527,False,False,preregistered_2p5sd
264,P03,3,P03_recording.wav,2,2,26,264,Baseline,Exhale,nan,,baseline,nan,610.0,True,hit,Baseline_Hit,observed,part2_wavblock2,reference_corrected_retained,64.364,wav_observed_reference_checked,excluded_incomplete,reference_checked_no_change,f,26,P03/Part2/P03_PPS_part2_2f.csv,Baseline,,nan,Exhale,nan,True,Control,-0.5,-0.5,,791.8523076923077,177.69559654993802,347.61331631746265,1236.0912990671527,False,False,preregistered_2p5sd
265,P03,3,P03_recording.wav,2,2,27,265,Audio-Tactile,Inhale,nan,300.0,soa_300ms,brown,669.0,True,hit,Hit,observed,part2_wavblock2,reference_corrected_retained,64.364,wav_observed_reference_checked,excluded_incomplete,reference_checked_no_change,f,27,P03/Part2/P03_PPS_part2_2f.csv,Audio-Tactile,300.0,brown,Inhale,nan,True,Control,-0.5,0.5,100.0,791.8523076923077,177.69559654993802,347.61331631746265,1236.0912990671527,False,False,preregistered_2p5sd
267,P03,3,P03_recording.wav,2,2,29,267,Baseline,Inhale,nan,,baseline,nan,805.0,True,hit,Baseline_Hit,observed,part2_wavblock2,reference_corrected_retained,64.364,reference_label_corrected_observed,excluded_incomplete;phase_source_interval_parity;soa_quantization_gt_25ms;reference_label_corrected,reference_label_corrected,f,29,P03/Part2/P03_PPS_part2_2f.csv,Audio-Tactile,800.0,pink,Inhale,trial_type:Audio-Tactile->Baseline;SOA_ms:800->;noise_type:pink->N/A,True,Control,-0.5,0.5,,791.8523076923077,177.69559654993802,347.61331631746265,1236.0912990671527,False,False,preregistered_2p5sd
269,P03,3,P03_recording.wav,2,2,31,269,Baseline,Inhale,nan,,baseline,nan,630.0,True,hit,Baseline_Hit,observed,part2_wavblock2,reference_corrected_retained,64.364,reference_label_corrected_observed,excluded_incomplete;phase_source_interval_parity;soa_quantization_gt_25ms;reference_label_corrected,reference_label_corrected,f,31,P03/Part2/P03_PPS_part2_2f.csv,Audio-Tactile,300.0,brown,Inhale,trial_type:Audio-Tactile->Baseline;SOA_ms:300->;noise_type:brown->N/A,True,Control,-0.5,0.5,,791.8523076923077,177.69559654993802,347.61331631746265,1236.0912990671527,False,False,preregistered_2p5sd
270,P03,3,P03_recording.wav,2,2,32,270,Audio-Tactile,Exhale,nan,300.0,soa_300ms,white,728.0,True,hit,Hit,observed,part2_wavblock2,reference_corrected_retained,64.364,wav_observed_reference_checked,excluded_incomplete;phase_source_interval_parity,reference_checked_no_change,f,32,P03/Part2/P03_PPS_part2_2f.csv,Audio-Tactile,300.0,white,Exhale,nan,True,Control,-0.5,-0.5,100.0,791.8523076923077,177.69559654993802,347.61331631746265,1236.0912990671527,False,False,preregistered_2p5sd
271,P03,3,P03_recording.wav,2,2,33,271,Audio-Tactile,Inhale,nan,800.0,soa_800ms,blue,717.0,True,hit,Hit,observed,part2_wavblock2,reference_corrected_retained,64.364,wav_observed_reference_checked,excluded_incomplete,reference_checked_no_change,f,33,P03/Part2/P03_PPS_part2_2f.csv,Audio-Tactile,800.0,blue,Inhale,nan,True,Control,-0.5,0.5,73.0,791.8523076923077,177.69559654993802,347.61331631746265,1236.0912990671527,False,False,preregistered_2p5sd
273,P03,3,P03_recording.wav,2,3,1,273,Audio-Tactile,Inhale,nan,2200.0,soa_2200ms,blue,1146.0,True,hit,Hit,observed,part2_wavblock3,reference_corrected_retained,99.984,wav_observed_reference_checked,nan,reference_checked_no_change,d,1,P03/Part2/P03_PPS_part2_3d.csv,Audio-Tactile,2200.0,blue,Inhale,nan,True,Control,-0.5,0.5,27.0,791.8523076923077,177.69559654993802,347.61331631746265,1236.0912990671527,False,False,preregistered_2p5sd
274,P03,3,P03_recording.wav,2,3,2,274,Audio-Tactile,Exhale,nan,2200.0,soa_2200ms,white,656.0,True,hit,Hit,observed,part2_wavblock3,reference_corrected_retained,99.984,wav_observed_reference_checked,nan,reference_checked_no_change,d,2,P03/Part2/P03_PPS_part2_3d.csv,Audio-Tactile,2200.0,white,Exhale,nan,True,Control,-0.5,-0.5,27.0,791.8523076923077,177.69559654993802,347.61331631746265,1236.0912990671527,False,False,preregistered_2p5sd
276,P03,3,P03_recording.wav,2,3,4,276,Audio-Tactile,Exhale,nan,1500.0,soa_1500ms,pink,794.0,True,hit,Hit,observed,part2_wavblock3,reference_corrected_retained,99.984,wav_observed_reference_checked,nan,reference_checked_no_change,d,4,P03/Part2/P03_PPS_part2_3d.csv,Audio-Tactile,1500.0,pink,Exhale,nan,True,Control,-0.5,-0.5,50.0,791.8523076923077,177.69559654993802,347.61331631746265,1236.0912990671527,False,False,preregistered_2p5sd
277,P03,3,P03_recording.wav,2,3,5,277,Baseline,Inhale,nan,,baseline,nan,1191.0,True,hit,Baseline_Hit,observed,part2_wavblock3,reference_corrected_retained,99.984,wav_observed_reference_checked,nan,reference_checked_no_change,d,5,P03/Part2/P03_PPS_part2_3d.csv,Baseline,,nan,Inhale,nan,True,Control,-0.5,0.5,,791.8523076923077,177.69559654993802,347.61331631746265,1236.0912990671527,False,False,preregistered_2p5sd
278,P03,3,P03_recording.wav,2,3,6,278,Baseline,Exhale,nan,,baseline,nan,744.0,True,hit,Baseline_Hit,observed,part2_wavblock3,reference_corrected_retained,99.984,wav_observed_reference_checked,nan,reference_checked_no_change,d,6,P03/Part2/P03_PPS_part2_3d.csv,Baseline,,nan,Exhale,nan,True,Control,-0.5,-0.5,,791.8523076923077,177.69559654993802,347.61331631746265,1236.0912990671527,False,False,preregistered_2p5sd
279,P03,3,P03_recording.wav,2,3,7,279,Audio-Tactile,Inhale,nan,2200.0,soa_2200ms,brown,989.0,True,hit,Hit,observed,part2_wavblock3,reference_corrected_retained,99.984,wav_observed_reference_checked,nan,reference_checked_no_change,d,7,P03/Part2/P03_PPS_part2_3d.csv,Audio-Tactile,2200.0,brown,Inhale,nan,True,Control,-0.5,0.5,27.0,791.8523076923077,177.69559654993802,347.61331631746265,1236.0912990671527,False,False,preregistered_2p5sd
281,P03,3,P03_recording.wav,2,3,9,281,Audio-Tactile,Inhale,nan,2700.0,soa_2700ms,blue,724.0,True,hit,Hit,observed,part2_wavblock3,reference_corrected_retained,99.984,wav_observed_reference_checked,nan,reference_checked_no_change,d,9,P03/Part2/P03_PPS_part2_3d.csv,Audio-Tactile,2700.0,blue,Inhale,nan,True,Control,-0.5,0.5,10.0,791.8523076923077,177.69559654993802,347.61331631746265,1236.0912990671527,False,False,preregistered_2p5sd
282,P03,3,P03_recording.wav,2,3,10,282,Baseline,Exhale,nan,,baseline,nan,1028.0,True,hit,Baseline_Hit,observed,part2_wavblock3,reference_corrected_retained,99.984,wav_observed_reference_checked,nan,reference_checked_no_change,d,10,P03/Part2/P03_PPS_part2_3d.csv,Baseline,,nan,Exhale,nan,True,Control,-0.5,-0.5,,791.8523076923077,177.69559654993802,347.61331631746265,1236.0912990671527,False,False,preregistered_2p5sd
283,P03,3,P03_recording.wav,2,3,11,283,Baseline,Inhale,nan,,baseline,nan,777.0,True,hit,Baseline_Hit,observed,part2_wavblock3,reference_corrected_retained,99.984,wav_observed_reference_checked,nan,reference_checked_no_change,d,11,P03/Part2/P03_PPS_part2_3d.csv,Baseline,,nan,Inhale,nan,True,Control,-0.5,0.5,,791.8523076923077,177.69559654993802,347.61331631746265,1236.0912990671527,False,False,preregistered_2p5sd
284,P03,3,P03_recording.wav,2,3,12,284,Audio-Tactile,Exhale,nan,2700.0,soa_2700ms,white,796.0,True,hit,Hit,observed,part2_wavblock3,reference_corrected_retained,99.984,wav_observed_reference_checked,nan,reference_checked_no_change,d,12,P03/Part2/P03_PPS_part2_3d.csv,Audio-Tactile,2700.0,white,Exhale,nan,True,Control,-0.5,-0.5,10.0,791.8523076923077,177.69559654993802,347.61331631746265,1236.0912990671527,False,False,preregistered_2p5sd
287,P03,3,P03_recording.wav,2,3,15,287,Audio-Tactile,Inhale,nan,800.0,soa_800ms,blue,704.0,True,hit,Hit,observed,part2_wavblock3,reference_corrected_retained,99.984,wav_observed_reference_checked,nan,reference_checked_no_change,d,15,P03/Part2/P03_PPS_part2_3d.csv,Audio-Tactile,800.0,blue,Inhale,nan,True,Control,-0.5,0.5,73.0,791.8523076923077,177.69559654993802,347.61331631746265,1236.0912990671527,False,False,preregistered_2p5sd
288,P03,3,P03_recording.wav,2,3,16,288,Baseline,Exhale,nan,,baseline,nan,738.0,True,hit,Baseline_Hit,observed,part2_wavblock3,reference_corrected_retained,99.984,wav_observed_reference_checked,nan,reference_checked_no_change,d,16,P03/Part2/P03_PPS_part2_3d.csv,Baseline,,nan,Exhale,nan,True,Control,-0.5,-0.5,,791.8523076923077,177.69559654993802,347.61331631746265,1236.0912990671527,False,False,preregistered_2p5sd
289,P03,3,P03_recording.wav,2,3,17,289,Audio-Tactile,Inhale,nan,300.0,soa_300ms,brown,695.0,True,hit,Hit,observed,part2_wavblock3,reference_corrected_retained,99.984,wav_observed_reference_checked,nan,reference_checked_no_change,d,17,P03/Part2/P03_PPS_part2_3d.csv,Audio-Tactile,300.0,brown,Inhale,nan,True,Control,-0.5,0.5,100.0,791.8523076923077,177.69559654993802,347.61331631746265,1236.0912990671527,False,False,preregistered_2p5sd
290,P03,3,P03_recording.wav,2,3,18,290,Audio-Tactile,Exhale,nan,2700.0,soa_2700ms,pink,665.0,True,hit,Hit,observed,part2_wavblock3,reference_corrected_retained,99.984,wav_observed_reference_checked,nan,reference_checked_no_change,d,18,P03/Part2/P03_PPS_part2_3d.csv,Audio-Tactile,2700.0,pink,Exhale,nan,True,Control,-0.5,-0.5,10.0,791.8523076923077,177.69559654993802,347.61331631746265,1236.0912990671527,False,False,preregistered_2p5sd
291,P03,3,P03_recording.wav,2,3,19,291,Baseline,Inhale,nan,,baseline,nan,752.0,True,hit,Baseline_Hit,observed,part2_wavblock3,reference_corrected_retained,99.984,wav_observed_reference_checked,nan,reference_checked_no_change,d,19,P03/Part2/P03_PPS_part2_3d.csv,Baseline,,nan,Inhale,nan,True,Control,-0.5,0.5,,791.8523076923077,177.69559654993802,347.61331631746265,1236.0912990671527,False,False,preregistered_2p5sd
292,P03,3,P03_recording.wav,2,3,20,292,Baseline,Exhale,nan,,baseline,nan,669.0,True,hit,Baseline_Hit,observed,part2_wavblock3,reference_corrected_retained,99.984,wav_observed_reference_checked,nan,reference_checked_no_change,d,20,P03/Part2/P03_PPS_part2_3d.csv,Baseline,,nan,Exhale,nan,True,Control,-0.5,-0.5,,791.8523076923077,177.69559654993802,347.61331631746265,1236.0912990671527,False,False,preregistered_2p5sd
294,P03,3,P03_recording.wav,2,3,22,294,Audio-Tactile,Exhale,nan,2200.0,soa_2200ms,pink,656.0,True,hit,Hit,observed,part2_wavblock3,reference_corrected_retained,99.984,wav_observed_reference_checked,nan,reference_checked_no_change,d,22,P03/Part2/P03_PPS_part2_3d.csv,Audio-Tactile,2200.0,pink,Exhale,nan,True,Control,-0.5,-0.5,27.0,791.8523076923077,177.69559654993802,347.61331631746265,1236.0912990671527,False,False,preregistered_2p5sd
295,P03,3,P03_recording.wav,2,3,23,295,Audio-Tactile,Inhale,nan,1500.0,soa_1500ms,brown,735.0,True,hit,Hit,observed,part2_wavblock3,reference_corrected_retained,99.984,wav_observed_reference_checked,nan,reference_checked_no_change,d,23,P03/Part2/P03_PPS_part2_3d.csv,Audio-Tactile,1500.0,brown,Inhale,nan,True,Control,-0.5,0.5,50.0,791.8523076923077,177.69559654993802,347.61331631746265,1236.0912990671527,False,False,preregistered_2p5sd
297,P03,3,P03_recording.wav,2,3,25,297,Audio-Tactile,Inhale,nan,300.0,soa_300ms,blue,734.0,True,hit,Hit,observed,part2_wavblock3,reference_corrected_retained,99.984,wav_observed_reference_checked,nan,reference_checked_no_change,d,25,P03/Part2/P03_PPS_part2_3d.csv,Audio-Tactile,300.0,blue,Inhale,nan,True,Control,-0.5,0.5,100.0,791.8523076923077,177.69559654993802,347.61331631746265,1236.0912990671527,False,False,preregistered_2p5sd
299,P03,3,P03_recording.wav,2,3,27,299,Baseline,Inhale,nan,,baseline,nan,754.0,True,hit,Baseline_Hit,observed,part2_wavblock3,reference_corrected_retained,99.984,wav_observed_reference_checked,nan,reference_checked_no_change,d,27,P03/Part2/P03_PPS_part2_3d.csv,Baseline,,nan,Inhale,nan,True,Control,-0.5,0.5,,791.8523076923077,177.69559654993802,347.61331631746265,1236.0912990671527,False,False,preregistered_2p5sd
300,P03,3,P03_recording.wav,2,3,28,300,Baseline,Exhale,nan,,baseline,nan,615.0,True,hit,Baseline_Hit,observed,part2_wavblock3,reference_corrected_retained,99.984,wav_observed_reference_checked,nan,reference_checked_no_change,d,28,P03/Part2/P03_PPS_part2_3d.csv,Baseline,,nan,Exhale,nan,True,Control,-0.5,-0.5,,791.8523076923077,177.69559654993802,347.61331631746265,1236.0912990671527,False,False,preregistered_2p5sd
